[{"session_id":"adcc1b604ab72","trial_n":1,"move_n":"1","response_time":8.003,"submitted_x":3,"submitted_y":0,"key":39,"move_direction":"right"},{"session_id":"adcc1b604ab72","trial_n":1,"move_n":"1","response_time":8.854,"submitted_x":4,"submitted_y":0,"key":39,"move_direction":"right"},{"session_id":"adcc1b604ab72","trial_n":1,"move_n":"3","response_time":3.133,"submitted_x":3,"submitted_y":0,"key":40,"move_direction":"left"},{"session_id":"adcc1b604ab72","trial_n":1,"move_n":"4","response_time":1.201,"submitted_x":4,"submitted_y":0,"key":40,"move_direction":"right"},{"session_id":"adcc1b604ab72","trial_n":1,"move_n":"5","response_time":13.848,"submitted_x":4,"submitted_y":1,"key":40,"move_direction":"down"},{"session_id":"adcc1b604ab72","trial_n":1,"move_n":"6","response_time":1.004,"submitted_x":3,"submitted_y":1,"key":40,"move_direction":"left"},{"session_id":"adcc1b604ab72","trial_n":1,"move_n":"7","response_time":0.186,"submitted_x":3,"submitted_y":2,"key":40,"move_direction":"down"},{"session_id":"adcc1b604ab72","trial_n":1,"move_n":"8","response_time":0.461,"submitted_x":4,"submitted_y":2,"key":39,"move_direction":"right"},{"session_id":"adcc1b604ab72","trial_n":1,"move_n":"9","response_time":0.704,"submitted_x":4,"submitted_y":3,"key":40,"move_direction":"down"},{"session_id":"adcc1b604ab72","trial_n":2,"move_n":"1","response_time":0.789,"submitted_x":3,"submitted_y":0,"key":39,"move_direction":"right"},{"session_id":"adcc1b604ab72","trial_n":2,"move_n":"1","response_time":1.655,"submitted_x":3,"submitted_y":1,"key":40,"move_direction":"down"},{"session_id":"adcc1b604ab72","trial_n":2,"move_n":"3","response_time":0.044,"submitted_x":3,"submitted_y":2,"key":40,"move_direction":"down"},{"session_id":"adcc1b604ab72","trial_n":2,"move_n":"4","response_time":0.033,"submitted_x":3,"submitted_y":3,"key":39,"move_direction":"down"},{"session_id":"adcc1b604ab72","trial_n":2,"move_n":"5","response_time":1.65,"submitted_x":4,"submitted_y":3,"key":39,"move_direction":"right"},{"session_id":"adcc1b604ab72","trial_n":3,"move_n":"1","response_time":1.831,"submitted_x":3,"submitted_y":0,"key":39,"move_direction":"right"},{"session_id":"adcc1b604ab72","trial_n":3,"move_n":"1","response_time":2.664,"submitted_x":2,"submitted_y":0,"key":39,"move_direction":"left"},{"session_id":"adcc1b604ab72","trial_n":3,"move_n":"2","response_time":0.594,"submitted_x":3,"submitted_y":0,"key":39,"move_direction":"right"},{"session_id":"adcc1b604ab72","trial_n":3,"move_n":"3","response_time":0.186,"submitted_x":4,"submitted_y":0,"key":39,"move_direction":"right"},{"session_id":"adcc1b604ab72","trial_n":3,"move_n":"5","response_time":0.257,"submitted_x":4,"submitted_y":1,"key":40,"move_direction":"down"},{"session_id":"adcc1b604ab72","trial_n":3,"move_n":"5","response_time":0.933,"submitted_x":4,"submitted_y":2,"key":40,"move_direction":"down"},{"session_id":"adcc1b604ab72","trial_n":3,"move_n":"6","response_time":0.145,"submitted_x":4,"submitted_y":3,"key":40,"move_direction":"down"},{"session_id":"adcc1b604ab72","trial_n":4,"move_n":"1","response_time":1.848,"submitted_x":3,"submitted_y":0,"key":39,"move_direction":"right"},{"session_id":"adcc1b604ab72","trial_n":4,"move_n":"1","response_time":2.521,"submitted_x":2,"submitted_y":0,"key":39,"move_direction":"left"},{"session_id":"adcc1b604ab72","trial_n":4,"move_n":"2","response_time":0.567,"submitted_x":3,"submitted_y":0,"key":39,"move_direction":"right"},{"session_id":"adcc1b604ab72","trial_n":4,"move_n":"3","response_time":0.134,"submitted_x":4,"submitted_y":0,"key":39,"move_direction":"right"},{"session_id":"adcc1b604ab72","trial_n":4,"move_n":"5","response_time":0.063,"submitted_x":3,"submitted_y":0,"key":40,"move_direction":"left"},{"session_id":"adcc1b604ab72","trial_n":4,"move_n":"6","response_time":0.053,"submitted_x":4,"submitted_y":0,"key":39,"move_direction":"right"},{"session_id":"adcc1b604ab72","trial_n":4,"move_n":"6","response_time":0.728,"submitted_x":4,"submitted_y":1,"key":40,"move_direction":"down"},{"session_id":"adcc1b604ab72","trial_n":4,"move_n":"7","response_time":0.525,"submitted_x":4,"submitted_y":2,"key":40,"move_direction":"down"},{"session_id":"adcc1b604ab72","trial_n":4,"move_n":"9","response_time":0.348,"submitted_x":4,"submitted_y":3,"key":40,"move_direction":"down"},{"session_id":"adcc1b604ab72","trial_n":5,"move_n":"1","response_time":1.509,"submitted_x":3,"submitted_y":0,"key":39,"move_direction":"right"},{"session_id":"adcc1b604ab72","trial_n":5,"move_n":"1","response_time":2.091,"submitted_x":3,"submitted_y":1,"key":40,"move_direction":"down"},{"session_id":"adcc1b604ab72","trial_n":5,"move_n":"2","response_time":0.212,"submitted_x":3,"submitted_y":0,"key":39,"move_direction":"up"},{"session_id":"adcc1b604ab72","trial_n":5,"move_n":"4","response_time":0.684,"submitted_x":3,"submitted_y":1,"key":40,"move_direction":"down"},{"session_id":"adcc1b604ab72","trial_n":5,"move_n":"5","response_time":0.027,"submitted_x":3,"submitted_y":2,"key":40,"move_direction":"down"},{"session_id":"adcc1b604ab72","trial_n":5,"move_n":"5","response_time":0.586,"submitted_x":4,"submitted_y":2,"key":39,"move_direction":"right"},{"session_id":"adcc1b604ab72","trial_n":5,"move_n":"7","response_time":0.26,"submitted_x":5,"submitted_y":2,"key":39,"move_direction":"right"},{"session_id":"adcc1b604ab72","trial_n":5,"move_n":"8","response_time":0.412,"submitted_x":6,"submitted_y":2,"key":40,"move_direction":"right"},{"session_id":"adcc1b604ab72","trial_n":5,"move_n":"9","response_time":0.344,"submitted_x":6,"submitted_y":3,"key":40,"move_direction":"down"},{"session_id":"adcc1b604ab72","trial_n":5,"move_n":"9","response_time":1.198,"submitted_x":6,"submitted_y":2,"key":37,"move_direction":"up"},{"session_id":"adcc1b604ab72","trial_n":5,"move_n":"10","response_time":0.683,"submitted_x":5,"submitted_y":2,"key":37,"move_direction":"left"},{"session_id":"adcc1b604ab72","trial_n":5,"move_n":"11","response_time":0.321,"submitted_x":5,"submitted_y":3,"key":40,"move_direction":"down"},{"session_id":"133b1e0e02f93","trial_n":1,"move_n":"1","response_time":9.234,"submitted_x":3,"submitted_y":0,"key":39,"move_direction":"right"},{"session_id":"133b1e0e02f93","trial_n":1,"move_n":"1","response_time":9.798,"submitted_x":3,"submitted_y":1,"key":40,"move_direction":"down"},{"session_id":"133b1e0e02f93","trial_n":1,"move_n":"2","response_time":0.089,"submitted_x":2,"submitted_y":1,"key":40,"move_direction":"left"},{"session_id":"133b1e0e02f93","trial_n":1,"move_n":"3","response_time":0.256,"submitted_x":3,"submitted_y":1,"key":39,"move_direction":"right"},{"session_id":"133b1e0e02f93","trial_n":1,"move_n":"4","response_time":0.101,"submitted_x":3,"submitted_y":0,"key":39,"move_direction":"up"},{"session_id":"133b1e0e02f93","trial_n":1,"move_n":"4","response_time":0.278,"submitted_x":4,"submitted_y":0,"key":39,"move_direction":"right"},{"session_id":"133b1e0e02f93","trial_n":1,"move_n":"5","response_time":0.251,"submitted_x":4,"submitted_y":1,"key":40,"move_direction":"down"},{"session_id":"133b1e0e02f93","trial_n":1,"move_n":"6","response_time":0.069,"submitted_x":4,"submitted_y":2,"key":40,"move_direction":"down"},{"session_id":"133b1e0e02f93","trial_n":1,"move_n":"7","response_time":0.073,"submitted_x":4,"submitted_y":1,"key":40,"move_direction":"up"},{"session_id":"133b1e0e02f93","trial_n":1,"move_n":"7","response_time":0.452,"submitted_x":4,"submitted_y":2,"key":40,"move_direction":"down"},{"session_id":"133b1e0e02f93","trial_n":1,"move_n":"8","response_time":0.031,"submitted_x":3,"submitted_y":2,"key":40,"move_direction":"left"},{"session_id":"133b1e0e02f93","trial_n":1,"move_n":"10","response_time":0.075,"submitted_x":3,"submitted_y":3,"key":40,"move_direction":"down"},{"session_id":"133b1e0e02f93","trial_n":1,"move_n":"11","response_time":0.059,"submitted_x":4,"submitted_y":3,"key":39,"move_direction":"right"},{"session_id":"3d6709084afcf","trial_n":1,"move_n":"1","response_time":2.438,"submitted_x":3,"submitted_y":0,"key":39,"move_direction":"right"},{"session_id":"3d6709084afcf","trial_n":1,"move_n":"1","response_time":3.223,"submitted_x":3,"submitted_y":1,"key":40,"move_direction":"down"},{"session_id":"3d6709084afcf","trial_n":1,"move_n":"2","response_time":0.146,"submitted_x":3,"submitted_y":2,"key":40,"move_direction":"down"},{"session_id":"3d6709084afcf","trial_n":1,"move_n":"3","response_time":0.103,"submitted_x":4,"submitted_y":2,"key":39,"move_direction":"right"},{"session_id":"3d6709084afcf","trial_n":1,"move_n":"4","response_time":0.369,"submitted_x":3,"submitted_y":2,"key":40,"move_direction":"left"},{"session_id":"3d6709084afcf","trial_n":1,"move_n":"6","response_time":0.008,"submitted_x":2,"submitted_y":2,"key":40,"move_direction":"left"},{"session_id":"3d6709084afcf","trial_n":1,"move_n":"7","response_time":0.079,"submitted_x":2,"submitted_y":3,"key":39,"move_direction":"down"},{"session_id":"3d6709084afcf","trial_n":1,"move_n":"8","response_time":0.841,"submitted_x":3,"submitted_y":3,"key":39,"move_direction":"right"},{"session_id":"3d6709084afcf","trial_n":1,"move_n":"8","response_time":1.74,"submitted_x":4,"submitted_y":3,"key":39,"move_direction":"right"},{"session_id":"3d6709084afcf","trial_n":2,"move_n":"1","response_time":1.058,"submitted_x":3,"submitted_y":0,"key":39,"move_direction":"right"},{"session_id":"3d6709084afcf","trial_n":2,"move_n":"1","response_time":1.687,"submitted_x":3,"submitted_y":1,"key":40,"move_direction":"down"},{"session_id":"3d6709084afcf","trial_n":2,"move_n":"2","response_time":0.052,"submitted_x":3,"submitted_y":0,"key":40,"move_direction":"up"},{"session_id":"3d6709084afcf","trial_n":2,"move_n":"4","response_time":0.074,"submitted_x":3,"submitted_y":1,"key":40,"move_direction":"down"},{"session_id":"3d6709084afcf","trial_n":2,"move_n":"4","response_time":0.908,"submitted_x":3,"submitted_y":2,"key":40,"move_direction":"down"},{"session_id":"3d6709084afcf","trial_n":2,"move_n":"5","response_time":0.73,"submitted_x":4,"submitted_y":2,"key":39,"move_direction":"right"},{"session_id":"3d6709084afcf","trial_n":2,"move_n":"7","response_time":0.982,"submitted_x":4,"submitted_y":3,"key":40,"move_direction":"down"},{"session_id":"3d6709084afcf","trial_n":3,"move_n":"1","response_time":9.159,"submitted_x":2,"submitted_y":1,"key":40,"move_direction":"down"},{"session_id":"3d6709084afcf","trial_n":4,"move_n":"1","response_time":1.62,"submitted_x":2,"submitted_y":1,"key":40,"move_direction":"down"},{"session_id":"3d6709084afcf","trial_n":5,"move_n":"1","response_time":8.089,"submitted_x":2,"submitted_y":1,"key":40,"move_direction":"down"},{"session_id":"3d6709084afcf","trial_n":5,"move_n":"1","response_time":8.664,"submitted_x":2,"submitted_y":2,"key":40,"move_direction":"down"},{"session_id":"3d6709084afcf","trial_n":5,"move_n":"2","response_time":0.4,"submitted_x":3,"submitted_y":2,"key":39,"move_direction":"right"},{"session_id":"3d6709084afcf","trial_n":5,"move_n":"3","response_time":0.129,"submitted_x":4,"submitted_y":2,"key":39,"move_direction":"right"},{"session_id":"3d6709084afcf","trial_n":5,"move_n":"3","response_time":0.455,"submitted_x":5,"submitted_y":2,"key":39,"move_direction":"right"},{"session_id":"3d6709084afcf","trial_n":5,"move_n":"3","response_time":0.747,"submitted_x":6,"submitted_y":2,"key":39,"move_direction":"right"},{"session_id":"3d6709084afcf","trial_n":5,"move_n":"5","response_time":0.065,"submitted_x":5,"submitted_y":2,"key":37,"move_direction":"left"},{"session_id":"3d6709084afcf","trial_n":5,"move_n":"6","response_time":0.075,"submitted_x":6,"submitted_y":2,"key":40,"move_direction":"right"},{"session_id":"3d6709084afcf","trial_n":5,"move_n":"7","response_time":0.259,"submitted_x":5,"submitted_y":2,"key":37,"move_direction":"left"},{"session_id":"3d6709084afcf","trial_n":5,"move_n":"8","response_time":0.119,"submitted_x":5,"submitted_y":3,"key":40,"move_direction":"down"},{"session_id":"3d6709084afcf","trial_n":6,"move_n":"1","response_time":2.015,"submitted_x":2,"submitted_y":1,"key":40,"move_direction":"down"},{"session_id":"3d6709084afcf","trial_n":6,"move_n":"2","response_time":0.746,"submitted_x":2,"submitted_y":0,"key":38,"move_direction":"up"},{"session_id":"3d6709084afcf","trial_n":6,"move_n":"3","response_time":6.898,"submitted_x":3,"submitted_y":0,"key":40,"move_direction":"right"},{"session_id":"3d6709084afcf","trial_n":6,"move_n":"4","response_time":0.222,"submitted_x":3,"submitted_y":1,"key":40,"move_direction":"down"},{"session_id":"3d6709084afcf","trial_n":6,"move_n":"4","response_time":0.772,"submitted_x":2,"submitted_y":1,"key":37,"move_direction":"left"},{"session_id":"3d6709084afcf","trial_n":6,"move_n":"5","response_time":0.079,"submitted_x":2,"submitted_y":0,"key":37,"move_direction":"up"},{"session_id":"3d6709084afcf","trial_n":6,"move_n":"6","response_time":0.055,"submitted_x":2,"submitted_y":1,"key":40,"move_direction":"down"},{"session_id":"3d6709084afcf","trial_n":6,"move_n":"6","response_time":0.346,"submitted_x":1,"submitted_y":1,"key":37,"move_direction":"left"},{"session_id":"3d6709084afcf","trial_n":7,"move_n":"1","response_time":7.439,"submitted_x":3,"submitted_y":0,"key":39,"move_direction":"right"},{"session_id":"3d6709084afcf","trial_n":7,"move_n":"1","response_time":8.227,"submitted_x":4,"submitted_y":0,"key":39,"move_direction":"right"},{"session_id":"3d6709084afcf","trial_n":7,"move_n":"2","response_time":0.068,"submitted_x":4,"submitted_y":1,"key":40,"move_direction":"down"},{"session_id":"3d6709084afcf","trial_n":7,"move_n":"2","response_time":0.39,"submitted_x":4,"submitted_y":2,"key":40,"move_direction":"down"},{"session_id":"3d6709084afcf","trial_n":7,"move_n":"2","response_time":0.637,"submitted_x":4,"submitted_y":3,"key":40,"move_direction":"down"},{"session_id":"3d6709084afcf","trial_n":7,"move_n":"3","response_time":0.158,"submitted_x":5,"submitted_y":3,"key":39,"move_direction":"right"},{"session_id":"3d6709084afcf","trial_n":7,"move_n":"5","response_time":0.117,"submitted_x":6,"submitted_y":3,"key":39,"move_direction":"right"},{"session_id":"3d6709084afcf","trial_n":8,"move_n":"1","response_time":6.232,"submitted_x":1,"submitted_y":0,"key":39,"move_direction":"right"},{"session_id":"3d6709084afcf","trial_n":8,"move_n":"1","response_time":6.836,"submitted_x":2,"submitted_y":0,"key":39,"move_direction":"right"},{"session_id":"3d6709084afcf","trial_n":8,"move_n":"2","response_time":0.144,"submitted_x":2,"submitted_y":1,"key":39,"move_direction":"down"},{"session_id":"3d6709084afcf","trial_n":8,"move_n":"2","response_time":0.379,"submitted_x":3,"submitted_y":1,"key":39,"move_direction":"right"},{"session_id":"3d6709084afcf","trial_n":9,"move_n":"1","response_time":1.294,"submitted_x":2,"submitted_y":1,"key":40,"move_direction":"down"},{"session_id":"3d6709084afcf","trial_n":9,"move_n":"1","response_time":1.855,"submitted_x":3,"submitted_y":1,"key":39,"move_direction":"right"},{"session_id":"3d6709084afcf","trial_n":9,"move_n":"2","response_time":0.164,"submitted_x":4,"submitted_y":1,"key":39,"move_direction":"right"},{"session_id":"3d6709084afcf","trial_n":9,"move_n":"3","response_time":0.229,"submitted_x":5,"submitted_y":1,"key":39,"move_direction":"right"},{"session_id":"3d6709084afcf","trial_n":9,"move_n":"4","response_time":0.198,"submitted_x":5,"submitted_y":2,"key":40,"move_direction":"down"},{"session_id":"3d6709084afcf","trial_n":9,"move_n":"5","response_time":0.123,"submitted_x":5,"submitted_y":3,"key":40,"move_direction":"down"},{"session_id":"3d6709084afcf","trial_n":10,"move_n":"1","response_time":1.563,"submitted_x":1,"submitted_y":0,"key":39,"move_direction":"right"},{"session_id":"3d6709084afcf","trial_n":10,"move_n":"1","response_time":2.33,"submitted_x":2,"submitted_y":0,"key":39,"move_direction":"right"},{"session_id":"3d6709084afcf","trial_n":10,"move_n":"2","response_time":0.145,"submitted_x":3,"submitted_y":0,"key":39,"move_direction":"right"},{"session_id":"3d6709084afcf","trial_n":10,"move_n":"2","response_time":0.558,"submitted_x":4,"submitted_y":0,"key":39,"move_direction":"right"},{"session_id":"3d6709084afcf","trial_n":10,"move_n":"3","response_time":0.231,"submitted_x":4,"submitted_y":1,"key":40,"move_direction":"down"},{"session_id":"3d6709084afcf","trial_n":10,"move_n":"4","response_time":0.257,"submitted_x":4,"submitted_y":2,"key":40,"move_direction":"down"},{"session_id":"3d6709084afcf","trial_n":10,"move_n":"5","response_time":0.224,"submitted_x":4,"submitted_y":1,"key":37,"move_direction":"up"},{"session_id":"3d6709084afcf","trial_n":10,"move_n":"6","response_time":0.391,"submitted_x":4,"submitted_y":2,"key":40,"move_direction":"down"},{"session_id":"3d6709084afcf","trial_n":10,"move_n":"7","response_time":0.304,"submitted_x":3,"submitted_y":2,"key":37,"move_direction":"left"},{"session_id":"ecf3e59149848","trial_n":1,"move_n":"1","response_time":0.855,"submitted_x":3,"submitted_y":0,"key":39,"move_direction":"right"},{"session_id":"ecf3e59149848","trial_n":1,"move_n":"1","response_time":1.574,"submitted_x":2,"submitted_y":0,"key":40,"move_direction":"left"},{"session_id":"ecf3e59149848","trial_n":1,"move_n":"2","response_time":0.189,"submitted_x":2,"submitted_y":1,"key":40,"move_direction":"down"},{"session_id":"ecf3e59149848","trial_n":1,"move_n":"2","response_time":0.594,"submitted_x":2,"submitted_y":2,"key":40,"move_direction":"down"},{"session_id":"ecf3e59149848","trial_n":1,"move_n":"3","response_time":0.259,"submitted_x":3,"submitted_y":2,"key":39,"move_direction":"right"},{"session_id":"ecf3e59149848","trial_n":1,"move_n":"4","response_time":0.236,"submitted_x":4,"submitted_y":2,"key":39,"move_direction":"right"},{"session_id":"ecf3e59149848","trial_n":1,"move_n":"7","response_time":0.522,"submitted_x":4,"submitted_y":3,"key":40,"move_direction":"down"},{"session_id":"ecf3e59149848","trial_n":2,"move_n":"1","response_time":0.932,"submitted_x":3,"submitted_y":0,"key":39,"move_direction":"right"},{"session_id":"ecf3e59149848","trial_n":2,"move_n":"1","response_time":1.631,"submitted_x":2,"submitted_y":0,"key":40,"move_direction":"left"},{"session_id":"ecf3e59149848","trial_n":2,"move_n":"2","response_time":0.145,"submitted_x":3,"submitted_y":0,"key":40,"move_direction":"right"},{"session_id":"ecf3e59149848","trial_n":2,"move_n":"2","response_time":0.553,"submitted_x":3,"submitted_y":1,"key":40,"move_direction":"down"},{"session_id":"ecf3e59149848","trial_n":2,"move_n":"3","response_time":0.212,"submitted_x":3,"submitted_y":2,"key":40,"move_direction":"down"},{"session_id":"ecf3e59149848","trial_n":2,"move_n":"4","response_time":0.122,"submitted_x":4,"submitted_y":2,"key":39,"move_direction":"right"},{"session_id":"ecf3e59149848","trial_n":2,"move_n":"5","response_time":0.053,"submitted_x":4,"submitted_y":3,"key":40,"move_direction":"down"},{"session_id":"ecf3e59149848","trial_n":3,"move_n":"1","response_time":0.932,"submitted_x":3,"submitted_y":0,"key":40,"move_direction":"right"},{"session_id":"ecf3e59149848","trial_n":3,"move_n":"1","response_time":1.47,"submitted_x":3,"submitted_y":1,"key":40,"move_direction":"down"},{"session_id":"81a4b02d76cba","trial_n":1,"move_n":"1","response_time":2.508,"submitted_x":2,"submitted_y":1,"key":40,"move_direction":"down"},{"session_id":"81a4b02d76cba","trial_n":1,"move_n":"2","response_time":0.324,"submitted_x":3,"submitted_y":1,"key":39,"move_direction":"right"},{"session_id":"81a4b02d76cba","trial_n":1,"move_n":"2","response_time":1.159,"submitted_x":3,"submitted_y":2,"key":40,"move_direction":"down"},{"session_id":"81a4b02d76cba","trial_n":1,"move_n":"3","response_time":0.164,"submitted_x":4,"submitted_y":2,"key":39,"move_direction":"right"},{"session_id":"81a4b02d76cba","trial_n":1,"move_n":"4","response_time":0.207,"submitted_x":4,"submitted_y":3,"key":40,"move_direction":"down"},{"session_id":"81a4b02d76cba","trial_n":2,"move_n":"1","response_time":1.563,"submitted_x":3,"submitted_y":0,"key":39,"move_direction":"right"},{"session_id":"81a4b02d76cba","trial_n":2,"move_n":"1","response_time":2.169,"submitted_x":3,"submitted_y":1,"key":40,"move_direction":"down"},{"session_id":"81a4b02d76cba","trial_n":2,"move_n":"2","response_time":0.281,"submitted_x":4,"submitted_y":1,"key":39,"move_direction":"right"},{"session_id":"81a4b02d76cba","trial_n":2,"move_n":"3","response_time":0.371,"submitted_x":4,"submitted_y":2,"key":40,"move_direction":"down"},{"session_id":"81a4b02d76cba","trial_n":2,"move_n":"4","response_time":0.097,"submitted_x":4,"submitted_y":3,"key":40,"move_direction":"down"},{"session_id":"81a4b02d76cba","trial_n":3,"move_n":"1","response_time":1.509,"submitted_x":2,"submitted_y":1,"key":40,"move_direction":"down"},{"session_id":"81a4b02d76cba","trial_n":4,"move_n":"1","response_time":1.127,"submitted_x":2,"submitted_y":1,"key":40,"move_direction":"down"},{"session_id":"81a4b02d76cba","trial_n":5,"move_n":"1","response_time":1.579,"submitted_x":2,"submitted_y":1,"key":40,"move_direction":"down"},{"session_id":"81a4b02d76cba","trial_n":5,"move_n":"1","response_time":2.136,"submitted_x":2,"submitted_y":2,"key":40,"move_direction":"down"},{"session_id":"81a4b02d76cba","trial_n":5,"move_n":"2","response_time":0.142,"submitted_x":2,"submitted_y":3,"key":40,"move_direction":"down"},{"session_id":"36c54e2bf0dad","trial_n":1,"move_n":"1","response_time":3.346,"submitted_x":2,"submitted_y":1,"key":40,"move_direction":"down"},{"session_id":"8a301b681136d","trial_n":1,"move_n":"1","response_time":1.821,"submitted_x":2,"submitted_y":1,"key":40,"move_direction":"down"},{"session_id":"8a301b681136d","trial_n":1,"move_n":"1","response_time":2.741,"submitted_x":3,"submitted_y":1,"key":39,"move_direction":"right"},{"session_id":"8a301b681136d","trial_n":1,"move_n":"2","response_time":0.256,"submitted_x":4,"submitted_y":1,"key":40,"move_direction":"right"},{"session_id":"8a301b681136d","trial_n":1,"move_n":"2","response_time":0.751,"submitted_x":4,"submitted_y":2,"key":40,"move_direction":"down"},{"session_id":"8a301b681136d","trial_n":1,"move_n":"3","response_time":0.301,"submitted_x":4,"submitted_y":1,"key":40,"move_direction":"up"},{"session_id":"8a301b681136d","trial_n":1,"move_n":"5","response_time":0.006,"submitted_x":4,"submitted_y":2,"key":40,"move_direction":"down"},{"session_id":"8a301b681136d","trial_n":1,"move_n":"6","response_time":0.367,"submitted_x":4,"submitted_y":3,"key":40,"move_direction":"down"},{"session_id":"8a301b681136d","trial_n":2,"move_n":"1","response_time":1.465,"submitted_x":2,"submitted_y":1,"key":40,"move_direction":"down"},{"session_id":"8a301b681136d","trial_n":2,"move_n":"1","response_time":2.095,"submitted_x":2,"submitted_y":2,"key":40,"move_direction":"down"},{"session_id":"8a301b681136d","trial_n":2,"move_n":"2","response_time":0.077,"submitted_x":3,"submitted_y":2,"key":39,"move_direction":"right"},{"session_id":"8a301b681136d","trial_n":2,"move_n":"2","response_time":0.459,"submitted_x":2,"submitted_y":2,"key":39,"move_direction":"left"},{"session_id":"8a301b681136d","trial_n":2,"move_n":"3","response_time":0.438,"submitted_x":3,"submitted_y":2,"key":39,"move_direction":"right"},{"session_id":"8a301b681136d","trial_n":2,"move_n":"6","response_time":0.147,"submitted_x":3,"submitted_y":3,"key":40,"move_direction":"down"},{"session_id":"8a301b681136d","trial_n":2,"move_n":"7","response_time":0.32,"submitted_x":4,"submitted_y":3,"key":39,"move_direction":"right"},{"session_id":"8a301b681136d","trial_n":3,"move_n":"1","response_time":1.433,"submitted_x":3,"submitted_y":0,"key":39,"move_direction":"right"},{"session_id":"8a301b681136d","trial_n":3,"move_n":"1","response_time":2.311,"submitted_x":4,"submitted_y":0,"key":39,"move_direction":"right"},{"session_id":"8a301b681136d","trial_n":3,"move_n":"2","response_time":0.503,"submitted_x":4,"submitted_y":1,"key":40,"move_direction":"down"},{"session_id":"8a301b681136d","trial_n":3,"move_n":"3","response_time":0.015,"submitted_x":4,"submitted_y":2,"key":40,"move_direction":"down"},{"session_id":"8a301b681136d","trial_n":3,"move_n":"3","response_time":0.218,"submitted_x":4,"submitted_y":3,"key":40,"move_direction":"down"},{"session_id":"8a301b681136d","trial_n":4,"move_n":"1","response_time":2.41,"submitted_x":2,"submitted_y":1,"key":40,"move_direction":"down"},{"session_id":"8a301b681136d","trial_n":5,"move_n":"1","response_time":3.229,"submitted_x":3,"submitted_y":0,"key":39,"move_direction":"right"},{"session_id":"040db45fc43d2","trial_n":1,"move_n":"1","response_time":1.676,"submitted_x":3,"submitted_y":0,"key":39,"move_direction":"right"},{"session_id":"040db45fc43d2","trial_n":1,"move_n":"1","response_time":2.396,"submitted_x":3,"submitted_y":1,"key":40,"move_direction":"down"},{"session_id":"040db45fc43d2","trial_n":1,"move_n":"2","response_time":0.594,"submitted_x":2,"submitted_y":1,"key":40,"move_direction":"left"},{"session_id":"040db45fc43d2","trial_n":1,"move_n":"3","response_time":0.434,"submitted_x":2,"submitted_y":2,"key":40,"move_direction":"down"},{"session_id":"040db45fc43d2","trial_n":1,"move_n":"5","response_time":0.031,"submitted_x":3,"submitted_y":2,"key":39,"move_direction":"right"},{"session_id":"040db45fc43d2","trial_n":1,"move_n":"5","response_time":0.865,"submitted_x":3,"submitted_y":3,"key":39,"move_direction":"down"},{"session_id":"040db45fc43d2","trial_n":1,"move_n":"6","response_time":0.684,"submitted_x":4,"submitted_y":3,"key":39,"move_direction":"right"},{"session_id":"040db45fc43d2","trial_n":2,"move_n":"1","response_time":1.317,"submitted_x":2,"submitted_y":1,"key":39,"move_direction":"down"},{"session_id":"040db45fc43d2","trial_n":2,"move_n":"1","response_time":1.946,"submitted_x":3,"submitted_y":1,"key":39,"move_direction":"right"},{"session_id":"040db45fc43d2","trial_n":2,"move_n":"2","response_time":0.299,"submitted_x":4,"submitted_y":1,"key":40,"move_direction":"right"},{"session_id":"040db45fc43d2","trial_n":2,"move_n":"3","response_time":0.096,"submitted_x":4,"submitted_y":2,"key":40,"move_direction":"down"},{"session_id":"040db45fc43d2","trial_n":2,"move_n":"3","response_time":0.57,"submitted_x":4,"submitted_y":3,"key":40,"move_direction":"down"},{"session_id":"040db45fc43d2","trial_n":3,"move_n":"1","response_time":1.511,"submitted_x":2,"submitted_y":1,"key":40,"move_direction":"down"},{"session_id":"040db45fc43d2","trial_n":4,"move_n":"1","response_time":1.117,"submitted_x":2,"submitted_y":1,"key":40,"move_direction":"down"},{"session_id":"040db45fc43d2","trial_n":5,"move_n":"1","response_time":1.324,"submitted_x":1,"submitted_y":0,"key":39,"move_direction":"right"},{"session_id":"040db45fc43d2","trial_n":5,"move_n":"1","response_time":1.934,"submitted_x":1,"submitted_y":1,"key":40,"move_direction":"down"},{"session_id":"040db45fc43d2","trial_n":5,"move_n":"2","response_time":0.33,"submitted_x":2,"submitted_y":1,"key":39,"move_direction":"right"},{"session_id":"040db45fc43d2","trial_n":6,"move_n":"1","response_time":1.294,"submitted_x":0,"submitted_y":1,"key":40,"move_direction":"down"},{"session_id":"040db45fc43d2","trial_n":6,"move_n":"1","response_time":2.037,"submitted_x":1,"submitted_y":1,"key":39,"move_direction":"right"},{"session_id":"040db45fc43d2","trial_n":6,"move_n":"2","response_time":0.212,"submitted_x":2,"submitted_y":1,"key":39,"move_direction":"right"},{"session_id":"040db45fc43d2","trial_n":7,"move_n":"1","response_time":1.924,"submitted_x":2,"submitted_y":1,"key":40,"move_direction":"down"},{"session_id":"040db45fc43d2","trial_n":7,"move_n":"1","response_time":2.689,"submitted_x":2,"submitted_y":2,"key":40,"move_direction":"down"},{"session_id":"040db45fc43d2","trial_n":7,"move_n":"2","response_time":0.189,"submitted_x":2,"submitted_y":3,"key":40,"move_direction":"down"},{"session_id":"040db45fc43d2","trial_n":7,"move_n":"3","response_time":0.143,"submitted_x":1,"submitted_y":3,"key":37,"move_direction":"left"},{"session_id":"040db45fc43d2","trial_n":8,"move_n":"1","response_time":2.013,"submitted_x":2,"submitted_y":1,"key":40,"move_direction":"down"},{"session_id":"040db45fc43d2","trial_n":8,"move_n":"1","response_time":2.561,"submitted_x":2,"submitted_y":2,"key":40,"move_direction":"down"},{"session_id":"040db45fc43d2","trial_n":8,"move_n":"2","response_time":0.236,"submitted_x":2,"submitted_y":3,"key":40,"move_direction":"down"},{"session_id":"040db45fc43d2","trial_n":8,"move_n":"3","response_time":0.071,"submitted_x":1,"submitted_y":3,"key":37,"move_direction":"left"},{"session_id":"040db45fc43d2","trial_n":9,"move_n":"1","response_time":2.037,"submitted_x":2,"submitted_y":1,"key":40,"move_direction":"down"},{"session_id":"040db45fc43d2","trial_n":9,"move_n":"1","response_time":2.678,"submitted_x":2,"submitted_y":2,"key":40,"move_direction":"down"},{"session_id":"040db45fc43d2","trial_n":9,"move_n":"2","response_time":0.279,"submitted_x":2,"submitted_y":3,"key":40,"move_direction":"down"},{"session_id":"040db45fc43d2","trial_n":10,"move_n":"1","response_time":1.688,"submitted_x":1,"submitted_y":0,"key":40,"move_direction":"left"},{"session_id":"040db45fc43d2","trial_n":10,"move_n":"1","response_time":2.2,"submitted_x":1,"submitted_y":1,"key":40,"move_direction":"down"},{"session_id":"040db45fc43d2","trial_n":10,"move_n":"2","response_time":0.157,"submitted_x":2,"submitted_y":1,"key":40,"move_direction":"right"},{"session_id":"040db45fc43d2","trial_n":10,"move_n":"3","response_time":0.533,"submitted_x":2,"submitted_y":2,"key":40,"move_direction":"down"},{"session_id":"040db45fc43d2","trial_n":10,"move_n":"4","response_time":0.068,"submitted_x":2,"submitted_y":3,"key":40,"move_direction":"down"},{"session_id":"3ccac2663e04b","trial_n":1,"move_n":"1","response_time":8.515,"submitted_x":2,"submitted_y":1,"key":40,"move_direction":"down"},{"session_id":"3ccac2663e04b","trial_n":1,"move_n":"1","response_time":9.236,"submitted_x":3,"submitted_y":1,"key":39,"move_direction":"right"},{"session_id":"3ccac2663e04b","trial_n":1,"move_n":"2","response_time":0.053,"submitted_x":3,"submitted_y":2,"key":40,"move_direction":"down"},{"session_id":"3ccac2663e04b","trial_n":1,"move_n":"2","response_time":0.368,"submitted_x":3,"submitted_y":1,"key":39,"move_direction":"up"},{"session_id":"3ccac2663e04b","trial_n":1,"move_n":"2","response_time":0.637,"submitted_x":3,"submitted_y":2,"key":40,"move_direction":"down"},{"session_id":"3ccac2663e04b","trial_n":1,"move_n":"4","response_time":0.011,"submitted_x":4,"submitted_y":2,"key":39,"move_direction":"right"},{"session_id":"3ccac2663e04b","trial_n":1,"move_n":"4","response_time":0.304,"submitted_x":4,"submitted_y":3,"key":40,"move_direction":"down"},{"session_id":"3ccac2663e04b","trial_n":2,"move_n":"1","response_time":1.16,"submitted_x":2,"submitted_y":1,"key":40,"move_direction":"down"},{"session_id":"3ccac2663e04b","trial_n":2,"move_n":"1","response_time":1.88,"submitted_x":2,"submitted_y":2,"key":40,"move_direction":"down"},{"session_id":"3ccac2663e04b","trial_n":2,"move_n":"2","response_time":0.637,"submitted_x":2,"submitted_y":3,"key":39,"move_direction":"down"},{"session_id":"3ccac2663e04b","trial_n":2,"move_n":"3","response_time":0.165,"submitted_x":3,"submitted_y":3,"key":39,"move_direction":"right"},{"session_id":"3ccac2663e04b","trial_n":2,"move_n":"5","response_time":0.799,"submitted_x":4,"submitted_y":3,"key":39,"move_direction":"right"},{"session_id":"3ccac2663e04b","trial_n":3,"move_n":"1","response_time":19.315,"submitted_x":2,"submitted_y":1,"key":40,"move_direction":"down"},{"session_id":"3ccac2663e04b","trial_n":4,"move_n":"1","response_time":1.16,"submitted_x":3,"submitted_y":0,"key":39,"move_direction":"right"},{"session_id":"3ccac2663e04b","trial_n":4,"move_n":"2","response_time":0.144,"submitted_x":2,"submitted_y":0,"key":39,"move_direction":"left"},{"session_id":"3ccac2663e04b","trial_n":4,"move_n":"2","response_time":0.842,"submitted_x":3,"submitted_y":0,"key":39,"move_direction":"right"},{"session_id":"3ccac2663e04b","trial_n":4,"move_n":"3","response_time":0.477,"submitted_x":3,"submitted_y":1,"key":40,"move_direction":"down"},{"session_id":"3ccac2663e04b","trial_n":5,"move_n":"1","response_time":5.706,"submitted_x":1,"submitted_y":0,"key":39,"move_direction":"right"},{"session_id":"3ccac2663e04b","trial_n":5,"move_n":"1","response_time":6.346,"submitted_x":2,"submitted_y":0,"key":39,"move_direction":"right"},{"session_id":"3ccac2663e04b","trial_n":5,"move_n":"2","response_time":0.02,"submitted_x":3,"submitted_y":0,"key":39,"move_direction":"right"},{"session_id":"3ccac2663e04b","trial_n":5,"move_n":"2","response_time":0.244,"submitted_x":4,"submitted_y":0,"key":39,"move_direction":"right"},{"session_id":"3ccac2663e04b","trial_n":5,"move_n":"2","response_time":0.614,"submitted_x":4,"submitted_y":1,"key":40,"move_direction":"down"},{"session_id":"3ccac2663e04b","trial_n":5,"move_n":"3","response_time":0.224,"submitted_x":4,"submitted_y":2,"key":40,"move_direction":"down"},{"session_id":"3ccac2663e04b","trial_n":5,"move_n":"5","response_time":0.219,"submitted_x":3,"submitted_y":2,"key":37,"move_direction":"left"},{"session_id":"3ccac2663e04b","trial_n":6,"move_n":"1","response_time":6.29,"submitted_x":3,"submitted_y":0,"key":39,"move_direction":"right"},{"session_id":"3ccac2663e04b","trial_n":6,"move_n":"1","response_time":6.933,"submitted_x":3,"submitted_y":1,"key":40,"move_direction":"down"},{"session_id":"3ccac2663e04b","trial_n":6,"move_n":"2","response_time":0.066,"submitted_x":3,"submitted_y":2,"key":40,"move_direction":"down"},{"session_id":"3ccac2663e04b","trial_n":6,"move_n":"2","response_time":0.22,"submitted_x":3,"submitted_y":3,"key":40,"move_direction":"down"},{"session_id":"3ccac2663e04b","trial_n":7,"move_n":"1","response_time":1.725,"submitted_x":1,"submitted_y":0,"key":39,"move_direction":"right"},{"session_id":"3ccac2663e04b","trial_n":7,"move_n":"1","response_time":2.489,"submitted_x":2,"submitted_y":0,"key":39,"move_direction":"right"},{"session_id":"3ccac2663e04b","trial_n":7,"move_n":"2","response_time":0.008,"submitted_x":2,"submitted_y":1,"key":40,"move_direction":"down"},{"session_id":"3ccac2663e04b","trial_n":8,"move_n":"1","response_time":31.939,"submitted_x":2,"submitted_y":1,"key":40,"move_direction":"down"},{"session_id":"3ccac2663e04b","trial_n":8,"move_n":"1","response_time":32.703,"submitted_x":1,"submitted_y":1,"key":37,"move_direction":"left"},{"session_id":"3ccac2663e04b","trial_n":9,"move_n":"1","response_time":1.374,"submitted_x":2,"submitted_y":1,"key":40,"move_direction":"down"},{"session_id":"3ccac2663e04b","trial_n":9,"move_n":"1","response_time":2.004,"submitted_x":1,"submitted_y":1,"key":37,"move_direction":"left"},{"session_id":"3ccac2663e04b","trial_n":10,"move_n":"1","response_time":6.647,"submitted_x":3,"submitted_y":0,"key":39,"move_direction":"right"},{"session_id":"3ccac2663e04b","trial_n":10,"move_n":"1","response_time":7.278,"submitted_x":3,"submitted_y":1,"key":40,"move_direction":"down"},{"session_id":"3ccac2663e04b","trial_n":10,"move_n":"2","response_time":0.078,"submitted_x":3,"submitted_y":2,"key":40,"move_direction":"down"},{"session_id":"3ccac2663e04b","trial_n":10,"move_n":"2","response_time":0.415,"submitted_x":3,"submitted_y":1,"key":39,"move_direction":"up"},{"session_id":"3ccac2663e04b","trial_n":10,"move_n":"3","response_time":0.145,"submitted_x":3,"submitted_y":2,"key":40,"move_direction":"down"},{"session_id":"3ccac2663e04b","trial_n":10,"move_n":"4","response_time":0.03,"submitted_x":4,"submitted_y":2,"key":39,"move_direction":"right"},{"session_id":"3ccac2663e04b","trial_n":10,"move_n":"5","response_time":0.029,"submitted_x":4,"submitted_y":3,"key":40,"move_direction":"down"},{"session_id":"3ccac2663e04b","trial_n":10,"move_n":"5","response_time":0.298,"submitted_x":5,"submitted_y":3,"key":39,"move_direction":"right"},{"session_id":"3ccac2663e04b","trial_n":10,"move_n":"9","response_time":0.099,"submitted_x":4,"submitted_y":3,"key":39,"move_direction":"left"},{"session_id":"3ccac2663e04b","trial_n":10,"move_n":"10","response_time":0.007,"submitted_x":5,"submitted_y":3,"key":39,"move_direction":"right"},{"session_id":"3ccac2663e04b","trial_n":10,"move_n":"11","response_time":0.097,"submitted_x":6,"submitted_y":3,"key":39,"move_direction":"right"}]