[{"session_id":"4f241f2b66656","trial_n":1,"move_n":"1","response_time":3.026,"submitted_x":3,"submitted_y":0,"key":39,"move_direction":"right"},{"session_id":"4f241f2b66656","trial_n":1,"move_n":"2","response_time":0.041,"submitted_x":3,"submitted_y":1,"key":40,"move_direction":"down"},{"session_id":"4f241f2b66656","trial_n":1,"move_n":"3","response_time":0.162,"submitted_x":3,"submitted_y":2,"key":40,"move_direction":"down"},{"session_id":"4f241f2b66656","trial_n":1,"move_n":"4","response_time":0.161,"submitted_x":4,"submitted_y":2,"key":39,"move_direction":"right"},{"session_id":"4f241f2b66656","trial_n":1,"move_n":"5","response_time":1.375,"submitted_x":4,"submitted_y":3,"key":40,"move_direction":"down"},{"session_id":"4f241f2b66656","trial_n":2,"move_n":"1","response_time":1.751,"submitted_x":2,"submitted_y":1,"key":40,"move_direction":"down"},{"session_id":"4f241f2b66656","trial_n":2,"move_n":"2","response_time":0.925,"submitted_x":3,"submitted_y":1,"key":39,"move_direction":"right"},{"session_id":"4f241f2b66656","trial_n":2,"move_n":"3","response_time":13.935,"submitted_x":4,"submitted_y":1,"key":39,"move_direction":"right"},{"session_id":"4f241f2b66656","trial_n":2,"move_n":"4","response_time":0.534,"submitted_x":4,"submitted_y":2,"key":40,"move_direction":"down"},{"session_id":"4f241f2b66656","trial_n":2,"move_n":"5","response_time":0.579,"submitted_x":4,"submitted_y":3,"key":40,"move_direction":"down"},{"session_id":"4f241f2b66656","trial_n":3,"move_n":"1","response_time":1.486,"submitted_x":3,"submitted_y":0,"key":39,"move_direction":"right"},{"session_id":"4f241f2b66656","trial_n":3,"move_n":"2","response_time":1.152,"submitted_x":2,"submitted_y":0,"key":39,"move_direction":"left"},{"session_id":"4f241f2b66656","trial_n":3,"move_n":"3","response_time":1.15,"submitted_x":2,"submitted_y":1,"key":39,"move_direction":"down"},{"session_id":"4f241f2b66656","trial_n":4,"move_n":"1","response_time":1.871,"submitted_x":3,"submitted_y":0,"key":39,"move_direction":"right"},{"session_id":"4f241f2b66656","trial_n":4,"move_n":"2","response_time":0.815,"submitted_x":3,"submitted_y":1,"key":40,"move_direction":"down"},{"session_id":"4f241f2b66656","trial_n":5,"move_n":"1","response_time":1.185,"submitted_x":2,"submitted_y":1,"key":40,"move_direction":"down"},{"session_id":"4f241f2b66656","trial_n":5,"move_n":"2","response_time":0.274,"submitted_x":2,"submitted_y":2,"key":40,"move_direction":"down"},{"session_id":"4f241f2b66656","trial_n":5,"move_n":"3","response_time":82.401,"submitted_x":3,"submitted_y":2,"key":39,"move_direction":"right"},{"session_id":"4f241f2b66656","trial_n":5,"move_n":"4","response_time":1.306,"submitted_x":3,"submitted_y":3,"key":40,"move_direction":"down"},{"session_id":"4f241f2b66656","trial_n":5,"move_n":"5","response_time":0.633,"submitted_x":3,"submitted_y":2,"key":37,"move_direction":"up"},{"session_id":"4f241f2b66656","trial_n":5,"move_n":"6","response_time":7.205,"submitted_x":3,"submitted_y":3,"key":40,"move_direction":"down"},{"session_id":"4f241f2b66656","trial_n":5,"move_n":"7","response_time":0.202,"submitted_x":2,"submitted_y":3,"key":37,"move_direction":"left"},{"session_id":"4f241f2b66656","trial_n":5,"move_n":"8","response_time":0.95,"submitted_x":1,"submitted_y":3,"key":37,"move_direction":"left"},{"session_id":"4f241f2b66656","trial_n":6,"move_n":"1","response_time":2.193,"submitted_x":3,"submitted_y":0,"key":39,"move_direction":"right"},{"session_id":"4f241f2b66656","trial_n":6,"move_n":"2","response_time":1.038,"submitted_x":3,"submitted_y":1,"key":40,"move_direction":"down"},{"session_id":"4f241f2b66656","trial_n":6,"move_n":"3","response_time":3.785,"submitted_x":4,"submitted_y":1,"key":40,"move_direction":"right"},{"session_id":"4f241f2b66656","trial_n":6,"move_n":"4","response_time":0.523,"submitted_x":4,"submitted_y":2,"key":40,"move_direction":"down"},{"session_id":"4f241f2b66656","trial_n":6,"move_n":"5","response_time":0.566,"submitted_x":4,"submitted_y":3,"key":40,"move_direction":"down"},{"session_id":"4f241f2b66656","trial_n":6,"move_n":"6","response_time":1.33,"submitted_x":4,"submitted_y":2,"key":39,"move_direction":"up"},{"session_id":"4f241f2b66656","trial_n":6,"move_n":"7","response_time":0.679,"submitted_x":4,"submitted_y":3,"key":40,"move_direction":"down"},{"session_id":"4f241f2b66656","trial_n":6,"move_n":"8","response_time":1.363,"submitted_x":5,"submitted_y":3,"key":39,"move_direction":"right"},{"session_id":"4f241f2b66656","trial_n":6,"move_n":"9","response_time":0.801,"submitted_x":6,"submitted_y":3,"key":39,"move_direction":"right"},{"session_id":"4f241f2b66656","trial_n":7,"move_n":"1","response_time":85.14,"submitted_x":2,"submitted_y":1,"key":40,"move_direction":"down"},{"session_id":"4f241f2b66656","trial_n":7,"move_n":"2","response_time":0.183,"submitted_x":2,"submitted_y":2,"key":40,"move_direction":"down"},{"session_id":"4f241f2b66656","trial_n":7,"move_n":"3","response_time":0.141,"submitted_x":3,"submitted_y":2,"key":39,"move_direction":"right"},{"session_id":"4f241f2b66656","trial_n":7,"move_n":"4","response_time":1.874,"submitted_x":4,"submitted_y":2,"key":39,"move_direction":"right"},{"session_id":"4f241f2b66656","trial_n":7,"move_n":"5","response_time":0.768,"submitted_x":5,"submitted_y":2,"key":39,"move_direction":"right"},{"session_id":"4f241f2b66656","trial_n":7,"move_n":"6","response_time":0.878,"submitted_x":5,"submitted_y":3,"key":40,"move_direction":"down"},{"session_id":"4f241f2b66656","trial_n":8,"move_n":"1","response_time":1.728,"submitted_x":1,"submitted_y":0,"key":39,"move_direction":"right"},{"session_id":"4f241f2b66656","trial_n":8,"move_n":"2","response_time":0.452,"submitted_x":2,"submitted_y":0,"key":39,"move_direction":"right"},{"session_id":"4f241f2b66656","trial_n":8,"move_n":"3","response_time":0.802,"submitted_x":3,"submitted_y":0,"key":39,"move_direction":"right"},{"session_id":"4f241f2b66656","trial_n":8,"move_n":"4","response_time":0.69,"submitted_x":4,"submitted_y":0,"key":39,"move_direction":"right"},{"session_id":"4f241f2b66656","trial_n":8,"move_n":"5","response_time":0.88,"submitted_x":3,"submitted_y":0,"key":40,"move_direction":"left"},{"session_id":"4f241f2b66656","trial_n":8,"move_n":"6","response_time":0.431,"submitted_x":4,"submitted_y":0,"key":39,"move_direction":"right"},{"session_id":"4f241f2b66656","trial_n":8,"move_n":"7","response_time":0.814,"submitted_x":4,"submitted_y":1,"key":40,"move_direction":"down"},{"session_id":"4f241f2b66656","trial_n":8,"move_n":"8","response_time":1.194,"submitted_x":5,"submitted_y":1,"key":40,"move_direction":"right"},{"session_id":"4f241f2b66656","trial_n":8,"move_n":"9","response_time":0.068,"submitted_x":5,"submitted_y":0,"key":40,"move_direction":"up"},{"session_id":"4f241f2b66656","trial_n":8,"move_n":"10","response_time":0.092,"submitted_x":5,"submitted_y":1,"key":40,"move_direction":"down"},{"session_id":"4f241f2b66656","trial_n":8,"move_n":"11","response_time":1.423,"submitted_x":5,"submitted_y":2,"key":40,"move_direction":"down"},{"session_id":"4f241f2b66656","trial_n":8,"move_n":"12","response_time":0.7,"submitted_x":4,"submitted_y":2,"key":37,"move_direction":"left"},{"session_id":"4f241f2b66656","trial_n":8,"move_n":"13","response_time":0.86,"submitted_x":3,"submitted_y":2,"key":37,"move_direction":"left"},{"session_id":"4f241f2b66656","trial_n":9,"move_n":"1","response_time":1.931,"submitted_x":1,"submitted_y":3,"key":39,"move_direction":"right"},{"session_id":"4f241f2b66656","trial_n":9,"move_n":"2","response_time":0.071,"submitted_x":2,"submitted_y":3,"key":39,"move_direction":"right"},{"session_id":"4f241f2b66656","trial_n":9,"move_n":"3","response_time":2.095,"submitted_x":3,"submitted_y":3,"key":39,"move_direction":"right"},{"session_id":"4f241f2b66656","trial_n":9,"move_n":"4","response_time":0.162,"submitted_x":4,"submitted_y":3,"key":39,"move_direction":"right"},{"session_id":"4f241f2b66656","trial_n":9,"move_n":"5","response_time":0.16,"submitted_x":5,"submitted_y":3,"key":39,"move_direction":"right"},{"session_id":"4f241f2b66656","trial_n":9,"move_n":"6","response_time":0.974,"submitted_x":4,"submitted_y":3,"key":39,"move_direction":"left"},{"session_id":"4f241f2b66656","trial_n":9,"move_n":"7","response_time":0.201,"submitted_x":5,"submitted_y":3,"key":39,"move_direction":"right"},{"session_id":"4f241f2b66656","trial_n":9,"move_n":"8","response_time":0.661,"submitted_x":6,"submitted_y":3,"key":39,"move_direction":"right"},{"session_id":"4f241f2b66656","trial_n":9,"move_n":"9","response_time":0.653,"submitted_x":5,"submitted_y":3,"key":38,"move_direction":"left"},{"session_id":"4f241f2b66656","trial_n":9,"move_n":"10","response_time":0.071,"submitted_x":6,"submitted_y":3,"key":39,"move_direction":"right"},{"session_id":"4f241f2b66656","trial_n":9,"move_n":"11","response_time":0.292,"submitted_x":6,"submitted_y":2,"key":38,"move_direction":"up"},{"session_id":"4f241f2b66656","trial_n":9,"move_n":"12","response_time":0.481,"submitted_x":6,"submitted_y":1,"key":38,"move_direction":"up"},{"session_id":"4f241f2b66656","trial_n":9,"move_n":"13","response_time":0.766,"submitted_x":6,"submitted_y":0,"key":38,"move_direction":"up"},{"session_id":"4f241f2b66656","trial_n":10,"move_n":"1","response_time":2.069,"submitted_x":1,"submitted_y":3,"key":39,"move_direction":"right"},{"session_id":"4f241f2b66656","trial_n":10,"move_n":"2","response_time":0.839,"submitted_x":1,"submitted_y":2,"key":38,"move_direction":"up"},{"session_id":"4f241f2b66656","trial_n":10,"move_n":"3","response_time":0.744,"submitted_x":0,"submitted_y":2,"key":38,"move_direction":"left"},{"session_id":"4f241f2b66656","trial_n":10,"move_n":"4","response_time":0.789,"submitted_x":0,"submitted_y":3,"key":38,"move_direction":"down"},{"session_id":"4f241f2b66656","trial_n":10,"move_n":"5","response_time":0.157,"submitted_x":1,"submitted_y":3,"key":38,"move_direction":"right"},{"session_id":"4f241f2b66656","trial_n":10,"move_n":"6","response_time":0.972,"submitted_x":1,"submitted_y":2,"key":38,"move_direction":"up"},{"session_id":"4f241f2b66656","trial_n":10,"move_n":"7","response_time":0.249,"submitted_x":1,"submitted_y":1,"key":38,"move_direction":"up"},{"session_id":"4f241f2b66656","trial_n":10,"move_n":"8","response_time":0.657,"submitted_x":1,"submitted_y":0,"key":38,"move_direction":"up"},{"session_id":"4f241f2b66656","trial_n":10,"move_n":"9","response_time":0.474,"submitted_x":2,"submitted_y":0,"key":39,"move_direction":"right"},{"session_id":"4f241f2b66656","trial_n":10,"move_n":"10","response_time":0.093,"submitted_x":2,"submitted_y":1,"key":39,"move_direction":"down"},{"session_id":"4f241f2b66656","trial_n":10,"move_n":"11","response_time":0.341,"submitted_x":2,"submitted_y":0,"key":38,"move_direction":"up"},{"session_id":"4f241f2b66656","trial_n":10,"move_n":"12","response_time":0.341,"submitted_x":2,"submitted_y":1,"key":39,"move_direction":"down"},{"session_id":"4f241f2b66656","trial_n":10,"move_n":"13","response_time":0.655,"submitted_x":2,"submitted_y":0,"key":38,"move_direction":"up"},{"session_id":"4f241f2b66656","trial_n":10,"move_n":"14","response_time":0.833,"submitted_x":2,"submitted_y":1,"key":39,"move_direction":"down"},{"session_id":"4f241f2b66656","trial_n":10,"move_n":"15","response_time":0.854,"submitted_x":2,"submitted_y":0,"key":38,"move_direction":"up"},{"session_id":"4f241f2b66656","trial_n":10,"move_n":"16","response_time":0.899,"submitted_x":3,"submitted_y":0,"key":39,"move_direction":"right"},{"session_id":"4f241f2b66656","trial_n":10,"move_n":"17","response_time":0.072,"submitted_x":4,"submitted_y":0,"key":39,"move_direction":"right"},{"session_id":"4f241f2b66656","trial_n":10,"move_n":"18","response_time":0.18,"submitted_x":5,"submitted_y":0,"key":39,"move_direction":"right"},{"session_id":"4f241f2b66656","trial_n":10,"move_n":"19","response_time":0.365,"submitted_x":4,"submitted_y":0,"key":39,"move_direction":"left"},{"session_id":"4f241f2b66656","trial_n":10,"move_n":"20","response_time":0.222,"submitted_x":5,"submitted_y":0,"key":39,"move_direction":"right"},{"session_id":"4f241f2b66656","trial_n":10,"move_n":"21","response_time":0.684,"submitted_x":6,"submitted_y":0,"key":39,"move_direction":"right"},{"session_id":"4f241f2b66656","trial_n":11,"move_n":"1","response_time":1.252,"submitted_x":0,"submitted_y":2,"key":38,"move_direction":"up"},{"session_id":"4f241f2b66656","trial_n":11,"move_n":"2","response_time":0.205,"submitted_x":0,"submitted_y":1,"key":38,"move_direction":"up"},{"session_id":"4f241f2b66656","trial_n":11,"move_n":"3","response_time":0.452,"submitted_x":0,"submitted_y":2,"key":39,"move_direction":"down"},{"session_id":"4f241f2b66656","trial_n":11,"move_n":"4","response_time":0.426,"submitted_x":0,"submitted_y":1,"key":38,"move_direction":"up"},{"session_id":"4f241f2b66656","trial_n":11,"move_n":"5","response_time":0.699,"submitted_x":1,"submitted_y":1,"key":39,"move_direction":"right"},{"session_id":"4f241f2b66656","trial_n":11,"move_n":"6","response_time":0.073,"submitted_x":2,"submitted_y":1,"key":39,"move_direction":"right"},{"session_id":"4f241f2b66656","trial_n":11,"move_n":"7","response_time":0.382,"submitted_x":3,"submitted_y":1,"key":39,"move_direction":"right"},{"session_id":"4f241f2b66656","trial_n":11,"move_n":"8","response_time":0.701,"submitted_x":4,"submitted_y":1,"key":39,"move_direction":"right"},{"session_id":"4f241f2b66656","trial_n":11,"move_n":"9","response_time":0.877,"submitted_x":5,"submitted_y":1,"key":39,"move_direction":"right"},{"session_id":"4f241f2b66656","trial_n":11,"move_n":"10","response_time":2.362,"submitted_x":6,"submitted_y":1,"key":39,"move_direction":"right"},{"session_id":"4f241f2b66656","trial_n":11,"move_n":"11","response_time":0.968,"submitted_x":5,"submitted_y":1,"key":40,"move_direction":"left"},{"session_id":"4f241f2b66656","trial_n":11,"move_n":"12","response_time":1.153,"submitted_x":6,"submitted_y":1,"key":39,"move_direction":"right"},{"session_id":"4f241f2b66656","trial_n":11,"move_n":"13","response_time":2.139,"submitted_x":6,"submitted_y":2,"key":40,"move_direction":"down"},{"session_id":"4f241f2b66656","trial_n":11,"move_n":"14","response_time":1.192,"submitted_x":6,"submitted_y":1,"key":40,"move_direction":"up"},{"session_id":"4f241f2b66656","trial_n":11,"move_n":"15","response_time":0.877,"submitted_x":6,"submitted_y":2,"key":40,"move_direction":"down"},{"session_id":"4f241f2b66656","trial_n":11,"move_n":"16","response_time":0.791,"submitted_x":6,"submitted_y":3,"key":40,"move_direction":"down"},{"session_id":"4f241f2b66656","trial_n":12,"move_n":"1","response_time":7.362,"submitted_x":5,"submitted_y":3,"key":37,"move_direction":"left"},{"session_id":"4f241f2b66656","trial_n":12,"move_n":"2","response_time":0.247,"submitted_x":4,"submitted_y":3,"key":37,"move_direction":"left"},{"session_id":"4f241f2b66656","trial_n":12,"move_n":"3","response_time":0.521,"submitted_x":3,"submitted_y":3,"key":37,"move_direction":"left"},{"session_id":"4f241f2b66656","trial_n":12,"move_n":"4","response_time":0.498,"submitted_x":3,"submitted_y":2,"key":38,"move_direction":"up"},{"session_id":"4f241f2b66656","trial_n":12,"move_n":"5","response_time":0.066,"submitted_x":3,"submitted_y":1,"key":38,"move_direction":"up"},{"session_id":"4f241f2b66656","trial_n":12,"move_n":"6","response_time":0.208,"submitted_x":3,"submitted_y":0,"key":38,"move_direction":"up"},{"session_id":"4f241f2b66656","trial_n":12,"move_n":"7","response_time":0.632,"submitted_x":4,"submitted_y":0,"key":39,"move_direction":"right"},{"session_id":"4f241f2b66656","trial_n":12,"move_n":"8","response_time":1.013,"submitted_x":5,"submitted_y":0,"key":39,"move_direction":"right"},{"session_id":"4f241f2b66656","trial_n":13,"move_n":"1","response_time":2.109,"submitted_x":1,"submitted_y":3,"key":37,"move_direction":"left"},{"session_id":"4f241f2b66656","trial_n":13,"move_n":"2","response_time":35.798,"submitted_x":0,"submitted_y":3,"key":37,"move_direction":"left"},{"session_id":"4f241f2b66656","trial_n":13,"move_n":"3","response_time":0.293,"submitted_x":0,"submitted_y":2,"key":38,"move_direction":"up"},{"session_id":"4f241f2b66656","trial_n":13,"move_n":"4","response_time":0.193,"submitted_x":0,"submitted_y":1,"key":38,"move_direction":"up"},{"session_id":"4f241f2b66656","trial_n":13,"move_n":"5","response_time":0.327,"submitted_x":0,"submitted_y":0,"key":38,"move_direction":"up"},{"session_id":"4f241f2b66656","trial_n":13,"move_n":"6","response_time":0.179,"submitted_x":1,"submitted_y":0,"key":39,"move_direction":"right"},{"session_id":"4f241f2b66656","trial_n":13,"move_n":"7","response_time":0.12,"submitted_x":2,"submitted_y":0,"key":39,"move_direction":"right"},{"session_id":"4f241f2b66656","trial_n":13,"move_n":"8","response_time":0.951,"submitted_x":3,"submitted_y":0,"key":39,"move_direction":"right"},{"session_id":"4f241f2b66656","trial_n":14,"move_n":"1","response_time":2.022,"submitted_x":4,"submitted_y":3,"key":37,"move_direction":"left"},{"session_id":"4f241f2b66656","trial_n":14,"move_n":"2","response_time":0.134,"submitted_x":5,"submitted_y":3,"key":37,"move_direction":"right"},{"session_id":"4f241f2b66656","trial_n":14,"move_n":"3","response_time":0.028,"submitted_x":4,"submitted_y":3,"key":37,"move_direction":"left"},{"session_id":"4f241f2b66656","trial_n":14,"move_n":"4","response_time":0.167,"submitted_x":3,"submitted_y":3,"key":37,"move_direction":"left"},{"session_id":"4f241f2b66656","trial_n":14,"move_n":"5","response_time":0.007,"submitted_x":2,"submitted_y":3,"key":37,"move_direction":"left"},{"session_id":"4f241f2b66656","trial_n":14,"move_n":"6","response_time":0.211,"submitted_x":2,"submitted_y":2,"key":37,"move_direction":"up"},{"session_id":"4f241f2b66656","trial_n":14,"move_n":"7","response_time":0.16,"submitted_x":1,"submitted_y":2,"key":37,"move_direction":"left"},{"session_id":"4f241f2b66656","trial_n":14,"move_n":"8","response_time":0.09,"submitted_x":1,"submitted_y":1,"key":38,"move_direction":"up"},{"session_id":"4f241f2b66656","trial_n":14,"move_n":"9","response_time":0.749,"submitted_x":2,"submitted_y":1,"key":39,"move_direction":"right"},{"session_id":"4f241f2b66656","trial_n":14,"move_n":"10","response_time":0.63,"submitted_x":1,"submitted_y":1,"key":38,"move_direction":"left"},{"session_id":"4f241f2b66656","trial_n":14,"move_n":"11","response_time":0.68,"submitted_x":2,"submitted_y":1,"key":39,"move_direction":"right"},{"session_id":"4f241f2b66656","trial_n":14,"move_n":"12","response_time":0.675,"submitted_x":2,"submitted_y":2,"key":38,"move_direction":"down"},{"session_id":"4f241f2b66656","trial_n":14,"move_n":"13","response_time":0.039,"submitted_x":1,"submitted_y":2,"key":37,"move_direction":"left"},{"session_id":"4f241f2b66656","trial_n":14,"move_n":"14","response_time":0.839,"submitted_x":1,"submitted_y":1,"key":38,"move_direction":"up"},{"session_id":"4f241f2b66656","trial_n":14,"move_n":"15","response_time":0.766,"submitted_x":2,"submitted_y":1,"key":39,"move_direction":"right"},{"session_id":"4f241f2b66656","trial_n":14,"move_n":"16","response_time":0.701,"submitted_x":2,"submitted_y":0,"key":38,"move_direction":"up"},{"session_id":"4f241f2b66656","trial_n":14,"move_n":"17","response_time":0.81,"submitted_x":3,"submitted_y":0,"key":39,"move_direction":"right"},{"session_id":"4f241f2b66656","trial_n":15,"move_n":"1","response_time":2.282,"submitted_x":3,"submitted_y":0,"key":39,"move_direction":"right"},{"session_id":"4f241f2b66656","trial_n":15,"move_n":"2","response_time":0.11,"submitted_x":4,"submitted_y":0,"key":40,"move_direction":"right"},{"session_id":"4f241f2b66656","trial_n":15,"move_n":"3","response_time":0.34,"submitted_x":4,"submitted_y":1,"key":40,"move_direction":"down"},{"session_id":"4f241f2b66656","trial_n":15,"move_n":"4","response_time":0.231,"submitted_x":3,"submitted_y":1,"key":37,"move_direction":"left"},{"session_id":"4f241f2b66656","trial_n":15,"move_n":"5","response_time":0.159,"submitted_x":3,"submitted_y":2,"key":40,"move_direction":"down"},{"session_id":"4f241f2b66656","trial_n":15,"move_n":"6","response_time":0.384,"submitted_x":2,"submitted_y":2,"key":37,"move_direction":"left"},{"session_id":"4f241f2b66656","trial_n":15,"move_n":"7","response_time":0.068,"submitted_x":2,"submitted_y":3,"key":40,"move_direction":"down"},{"session_id":"4f241f2b66656","trial_n":15,"move_n":"8","response_time":0.044,"submitted_x":1,"submitted_y":3,"key":37,"move_direction":"left"},{"session_id":"4f241f2b66656","trial_n":16,"move_n":"1","response_time":1.015,"submitted_x":3,"submitted_y":0,"key":39,"move_direction":"right"},{"session_id":"4f241f2b66656","trial_n":16,"move_n":"2","response_time":0.115,"submitted_x":3,"submitted_y":1,"key":40,"move_direction":"down"},{"session_id":"4f241f2b66656","trial_n":16,"move_n":"3","response_time":0.045,"submitted_x":4,"submitted_y":1,"key":39,"move_direction":"right"},{"session_id":"4f241f2b66656","trial_n":16,"move_n":"4","response_time":0.274,"submitted_x":5,"submitted_y":1,"key":39,"move_direction":"right"},{"session_id":"4f241f2b66656","trial_n":17,"move_n":"1","response_time":1.081,"submitted_x":1,"submitted_y":0,"key":39,"move_direction":"right"},{"session_id":"4f241f2b66656","trial_n":17,"move_n":"2","response_time":0.446,"submitted_x":1,"submitted_y":1,"key":39,"move_direction":"down"},{"session_id":"4f241f2b66656","trial_n":17,"move_n":"3","response_time":0.479,"submitted_x":0,"submitted_y":1,"key":38,"move_direction":"left"},{"session_id":"4f241f2b66656","trial_n":17,"move_n":"4","response_time":0.97,"submitted_x":0,"submitted_y":0,"key":38,"move_direction":"up"},{"session_id":"4f241f2b66656","trial_n":17,"move_n":"5","response_time":1.261,"submitted_x":1,"submitted_y":0,"key":39,"move_direction":"right"},{"session_id":"4f241f2b66656","trial_n":17,"move_n":"6","response_time":0.921,"submitted_x":2,"submitted_y":0,"key":39,"move_direction":"right"},{"session_id":"4f241f2b66656","trial_n":18,"move_n":"1","response_time":1.779,"submitted_x":0,"submitted_y":1,"key":39,"move_direction":"down"},{"session_id":"4f241f2b66656","trial_n":18,"move_n":"2","response_time":0.362,"submitted_x":1,"submitted_y":1,"key":39,"move_direction":"right"},{"session_id":"4f241f2b66656","trial_n":18,"move_n":"3","response_time":0.113,"submitted_x":2,"submitted_y":1,"key":39,"move_direction":"right"},{"session_id":"4f241f2b66656","trial_n":19,"move_n":"1","response_time":1.018,"submitted_x":0,"submitted_y":2,"key":38,"move_direction":"up"},{"session_id":"4f241f2b66656","trial_n":19,"move_n":"2","response_time":0.156,"submitted_x":1,"submitted_y":2,"key":39,"move_direction":"right"},{"session_id":"4f241f2b66656","trial_n":19,"move_n":"3","response_time":0.069,"submitted_x":2,"submitted_y":2,"key":39,"move_direction":"right"},{"session_id":"4f241f2b66656","trial_n":19,"move_n":"4","response_time":1.891,"submitted_x":3,"submitted_y":2,"key":39,"move_direction":"right"},{"session_id":"4f241f2b66656","trial_n":20,"move_n":"1","response_time":1.577,"submitted_x":1,"submitted_y":3,"key":39,"move_direction":"right"},{"session_id":"4f241f2b66656","trial_n":20,"move_n":"2","response_time":0.117,"submitted_x":1,"submitted_y":2,"key":38,"move_direction":"up"},{"session_id":"4f241f2b66656","trial_n":20,"move_n":"3","response_time":0.245,"submitted_x":0,"submitted_y":2,"key":38,"move_direction":"left"},{"session_id":"4f241f2b66656","trial_n":20,"move_n":"4","response_time":0.274,"submitted_x":0,"submitted_y":1,"key":38,"move_direction":"up"},{"session_id":"4f241f2b66656","trial_n":20,"move_n":"5","response_time":0.07,"submitted_x":0,"submitted_y":0,"key":38,"move_direction":"up"},{"session_id":"4f241f2b66656","trial_n":20,"move_n":"6","response_time":0.344,"submitted_x":1,"submitted_y":0,"key":39,"move_direction":"right"},{"session_id":"4f241f2b66656","trial_n":20,"move_n":"7","response_time":0.428,"submitted_x":2,"submitted_y":0,"key":39,"move_direction":"right"},{"session_id":"4f241f2b66656","trial_n":20,"move_n":"8","response_time":0.541,"submitted_x":3,"submitted_y":0,"key":39,"move_direction":"right"},{"session_id":"4f241f2b66656","trial_n":20,"move_n":"9","response_time":1.238,"submitted_x":2,"submitted_y":0,"key":39,"move_direction":"left"},{"session_id":"4f241f2b66656","trial_n":20,"move_n":"10","response_time":0.856,"submitted_x":3,"submitted_y":0,"key":39,"move_direction":"right"},{"session_id":"4f241f2b66656","trial_n":20,"move_n":"11","response_time":0.605,"submitted_x":4,"submitted_y":0,"key":39,"move_direction":"right"},{"session_id":"4f241f2b66656","trial_n":20,"move_n":"12","response_time":0.814,"submitted_x":5,"submitted_y":0,"key":39,"move_direction":"right"},{"session_id":"4f241f2b66656","trial_n":20,"move_n":"13","response_time":0.699,"submitted_x":6,"submitted_y":0,"key":39,"move_direction":"right"},{"session_id":"4f241f2b66656","trial_n":20,"move_n":"14","response_time":0.964,"submitted_x":6,"submitted_y":1,"key":40,"move_direction":"down"},{"session_id":"4f241f2b66656","trial_n":20,"move_n":"15","response_time":0.722,"submitted_x":6,"submitted_y":2,"key":40,"move_direction":"down"},{"session_id":"4f241f2b66656","trial_n":20,"move_n":"16","response_time":0.288,"submitted_x":6,"submitted_y":3,"key":40,"move_direction":"down"},{"session_id":"4f241f2b66656","trial_n":21,"move_n":"1","response_time":4.567,"submitted_x":1,"submitted_y":3,"key":39,"move_direction":"right"},{"session_id":"4f241f2b66656","trial_n":21,"move_n":"2","response_time":0.222,"submitted_x":1,"submitted_y":2,"key":39,"move_direction":"up"},{"session_id":"4f241f2b66656","trial_n":21,"move_n":"3","response_time":0.179,"submitted_x":1,"submitted_y":3,"key":39,"move_direction":"down"},{"session_id":"4f241f2b66656","trial_n":21,"move_n":"4","response_time":0.042,"submitted_x":2,"submitted_y":3,"key":39,"move_direction":"right"},{"session_id":"4f241f2b66656","trial_n":22,"move_n":"1","response_time":2.042,"submitted_x":5,"submitted_y":3,"key":37,"move_direction":"left"},{"session_id":"4f241f2b66656","trial_n":22,"move_n":"2","response_time":0.159,"submitted_x":5,"submitted_y":2,"key":38,"move_direction":"up"},{"session_id":"4f241f2b66656","trial_n":23,"move_n":"1","response_time":0.95,"submitted_x":2,"submitted_y":2,"key":38,"move_direction":"up"},{"session_id":"4f241f2b66656","trial_n":24,"move_n":"1","response_time":4.033,"submitted_x":4,"submitted_y":3,"key":37,"move_direction":"left"},{"session_id":"4f241f2b66656","trial_n":24,"move_n":"2","response_time":1.958,"submitted_x":4,"submitted_y":2,"key":38,"move_direction":"up"}]