[{"session_id":"5b53fb47519f6","trial_n":1,"move_n":"1","response_time":2.184,"submitted_x":3,"submitted_y":0,"key":39,"move_direction":"right"},{"session_id":"5b53fb47519f6","trial_n":1,"move_n":"1","response_time":2.927,"submitted_x":3,"submitted_y":1,"key":40,"move_direction":"down"},{"session_id":"5b53fb47519f6","trial_n":1,"move_n":"2","response_time":0.32,"submitted_x":4,"submitted_y":1,"key":40,"move_direction":"right"},{"session_id":"5b53fb47519f6","trial_n":1,"move_n":"4","response_time":2.573,"submitted_x":4,"submitted_y":2,"key":40,"move_direction":"down"},{"session_id":"5b53fb47519f6","trial_n":1,"move_n":"5","response_time":0.187,"submitted_x":4,"submitted_y":3,"key":40,"move_direction":"down"},{"session_id":"5b53fb47519f6","trial_n":2,"move_n":"1","response_time":0.835,"submitted_x":2,"submitted_y":1,"key":39,"move_direction":"down"},{"session_id":"5b53fb47519f6","trial_n":2,"move_n":"1","response_time":1.668,"submitted_x":3,"submitted_y":1,"key":39,"move_direction":"right"},{"session_id":"5b53fb47519f6","trial_n":2,"move_n":"2","response_time":0.256,"submitted_x":3,"submitted_y":2,"key":40,"move_direction":"down"},{"session_id":"5b53fb47519f6","trial_n":2,"move_n":"2","response_time":0.595,"submitted_x":4,"submitted_y":2,"key":39,"move_direction":"right"},{"session_id":"5b53fb47519f6","trial_n":2,"move_n":"3","response_time":0.118,"submitted_x":4,"submitted_y":3,"key":40,"move_direction":"down"},{"session_id":"5b53fb47519f6","trial_n":3,"move_n":"1","response_time":0.903,"submitted_x":3,"submitted_y":0,"key":39,"move_direction":"right"},{"session_id":"5b53fb47519f6","trial_n":3,"move_n":"1","response_time":1.485,"submitted_x":3,"submitted_y":1,"key":39,"move_direction":"down"},{"session_id":"5b53fb47519f6","trial_n":4,"move_n":"1","response_time":1.05,"submitted_x":3,"submitted_y":0,"key":39,"move_direction":"right"},{"session_id":"5b53fb47519f6","trial_n":4,"move_n":"1","response_time":1.723,"submitted_x":4,"submitted_y":0,"key":39,"move_direction":"right"},{"session_id":"5b53fb47519f6","trial_n":4,"move_n":"2","response_time":0.05,"submitted_x":4,"submitted_y":1,"key":40,"move_direction":"down"},{"session_id":"5b53fb47519f6","trial_n":4,"move_n":"2","response_time":0.444,"submitted_x":4,"submitted_y":2,"key":40,"move_direction":"down"},{"session_id":"5b53fb47519f6","trial_n":4,"move_n":"3","response_time":0.301,"submitted_x":4,"submitted_y":3,"key":40,"move_direction":"down"},{"session_id":"5b53fb47519f6","trial_n":5,"move_n":"1","response_time":8.159,"submitted_x":3,"submitted_y":0,"key":39,"move_direction":"right"},{"session_id":"5b53fb47519f6","trial_n":5,"move_n":"1","response_time":9.013,"submitted_x":3,"submitted_y":1,"key":40,"move_direction":"down"},{"session_id":"5b53fb47519f6","trial_n":5,"move_n":"2","response_time":0.183,"submitted_x":3,"submitted_y":2,"key":40,"move_direction":"down"},{"session_id":"5b53fb47519f6","trial_n":5,"move_n":"2","response_time":0.681,"submitted_x":4,"submitted_y":2,"key":39,"move_direction":"right"},{"session_id":"5b53fb47519f6","trial_n":5,"move_n":"3","response_time":0.145,"submitted_x":4,"submitted_y":3,"key":40,"move_direction":"down"},{"session_id":"5b53fb47519f6","trial_n":5,"move_n":"4","response_time":0.45,"submitted_x":5,"submitted_y":3,"key":39,"move_direction":"right"},{"session_id":"5b53fb47519f6","trial_n":5,"move_n":"6","response_time":0.321,"submitted_x":6,"submitted_y":3,"key":39,"move_direction":"right"}]