[{"session_id":"5e35746ed0df4","trial_n":1,"move_n":"1","response_time":1.648,"submitted_x":3,"submitted_y":0,"key":39,"move_direction":"right"},{"session_id":"5e35746ed0df4","trial_n":1,"move_n":"2","response_time":1.43,"submitted_x":3,"submitted_y":1,"key":40,"move_direction":"down"},{"session_id":"5e35746ed0df4","trial_n":1,"move_n":"3","response_time":0.275,"submitted_x":3,"submitted_y":2,"key":39,"move_direction":"down"},{"session_id":"5e35746ed0df4","trial_n":1,"move_n":"4","response_time":0.093,"submitted_x":2,"submitted_y":2,"key":38,"move_direction":"left"},{"session_id":"5e35746ed0df4","trial_n":1,"move_n":"5","response_time":0.194,"submitted_x":3,"submitted_y":2,"key":39,"move_direction":"right"},{"session_id":"5e35746ed0df4","trial_n":1,"move_n":"6","response_time":0.391,"submitted_x":4,"submitted_y":2,"key":39,"move_direction":"right"},{"session_id":"5e35746ed0df4","trial_n":1,"move_n":"7","response_time":0.353,"submitted_x":3,"submitted_y":2,"key":40,"move_direction":"left"},{"session_id":"5e35746ed0df4","trial_n":1,"move_n":"8","response_time":0.295,"submitted_x":4,"submitted_y":2,"key":39,"move_direction":"right"},{"session_id":"5e35746ed0df4","trial_n":1,"move_n":"9","response_time":0.488,"submitted_x":4,"submitted_y":1,"key":40,"move_direction":"up"},{"session_id":"5e35746ed0df4","trial_n":1,"move_n":"10","response_time":0.095,"submitted_x":4,"submitted_y":2,"key":40,"move_direction":"down"},{"session_id":"5e35746ed0df4","trial_n":1,"move_n":"11","response_time":0.15,"submitted_x":4,"submitted_y":3,"key":40,"move_direction":"down"},{"session_id":"5e35746ed0df4","trial_n":2,"move_n":"1","response_time":1.374,"submitted_x":3,"submitted_y":0,"key":39,"move_direction":"right"},{"session_id":"5e35746ed0df4","trial_n":2,"move_n":"2","response_time":0.186,"submitted_x":3,"submitted_y":1,"key":40,"move_direction":"down"},{"session_id":"5e35746ed0df4","trial_n":2,"move_n":"3","response_time":0.021,"submitted_x":4,"submitted_y":1,"key":39,"move_direction":"right"},{"session_id":"5e35746ed0df4","trial_n":2,"move_n":"4","response_time":0.299,"submitted_x":4,"submitted_y":2,"key":40,"move_direction":"down"},{"session_id":"5e35746ed0df4","trial_n":2,"move_n":"5","response_time":1.216,"submitted_x":4,"submitted_y":3,"key":37,"move_direction":"down"},{"session_id":"5e35746ed0df4","trial_n":3,"move_n":"1","response_time":1.946,"submitted_x":3,"submitted_y":0,"key":39,"move_direction":"right"},{"session_id":"5e35746ed0df4","trial_n":3,"move_n":"2","response_time":0.175,"submitted_x":3,"submitted_y":1,"key":40,"move_direction":"down"},{"session_id":"5e35746ed0df4","trial_n":4,"move_n":"1","response_time":1.123,"submitted_x":2,"submitted_y":1,"key":40,"move_direction":"down"},{"session_id":"5e35746ed0df4","trial_n":5,"move_n":"1","response_time":1.082,"submitted_x":3,"submitted_y":0,"key":39,"move_direction":"right"},{"session_id":"5e35746ed0df4","trial_n":5,"move_n":"2","response_time":0.523,"submitted_x":2,"submitted_y":0,"key":39,"move_direction":"left"},{"session_id":"5e35746ed0df4","trial_n":5,"move_n":"3","response_time":0.039,"submitted_x":3,"submitted_y":0,"key":39,"move_direction":"right"},{"session_id":"5e35746ed0df4","trial_n":5,"move_n":"4","response_time":0.016,"submitted_x":4,"submitted_y":0,"key":39,"move_direction":"right"},{"session_id":"5e35746ed0df4","trial_n":5,"move_n":"5","response_time":0.605,"submitted_x":3,"submitted_y":0,"key":37,"move_direction":"left"},{"session_id":"5e35746ed0df4","trial_n":5,"move_n":"6","response_time":0.308,"submitted_x":3,"submitted_y":1,"key":40,"move_direction":"down"},{"session_id":"5e35746ed0df4","trial_n":5,"move_n":"7","response_time":0.32,"submitted_x":3,"submitted_y":0,"key":38,"move_direction":"up"},{"session_id":"5e35746ed0df4","trial_n":5,"move_n":"8","response_time":0.253,"submitted_x":2,"submitted_y":0,"key":39,"move_direction":"left"},{"session_id":"5e35746ed0df4","trial_n":5,"move_n":"9","response_time":0.333,"submitted_x":3,"submitted_y":0,"key":39,"move_direction":"right"},{"session_id":"5e35746ed0df4","trial_n":5,"move_n":"10","response_time":0.317,"submitted_x":4,"submitted_y":0,"key":39,"move_direction":"right"},{"session_id":"5e35746ed0df4","trial_n":5,"move_n":"11","response_time":0.382,"submitted_x":4,"submitted_y":1,"key":40,"move_direction":"down"},{"session_id":"5e35746ed0df4","trial_n":5,"move_n":"12","response_time":0.112,"submitted_x":3,"submitted_y":1,"key":37,"move_direction":"left"},{"session_id":"5e35746ed0df4","trial_n":5,"move_n":"13","response_time":0.322,"submitted_x":3,"submitted_y":2,"key":40,"move_direction":"down"},{"session_id":"5e35746ed0df4","trial_n":5,"move_n":"14","response_time":0.374,"submitted_x":3,"submitted_y":1,"key":38,"move_direction":"up"},{"session_id":"5e35746ed0df4","trial_n":5,"move_n":"15","response_time":0.63,"submitted_x":4,"submitted_y":1,"key":39,"move_direction":"right"},{"session_id":"5e35746ed0df4","trial_n":5,"move_n":"16","response_time":0.384,"submitted_x":3,"submitted_y":1,"key":37,"move_direction":"left"},{"session_id":"5e35746ed0df4","trial_n":5,"move_n":"17","response_time":0.354,"submitted_x":3,"submitted_y":2,"key":40,"move_direction":"down"},{"session_id":"5e35746ed0df4","trial_n":5,"move_n":"18","response_time":0.396,"submitted_x":3,"submitted_y":3,"key":39,"move_direction":"down"},{"session_id":"5e35746ed0df4","trial_n":6,"move_n":"1","response_time":0.979,"submitted_x":3,"submitted_y":0,"key":39,"move_direction":"right"},{"session_id":"5e35746ed0df4","trial_n":6,"move_n":"2","response_time":0.128,"submitted_x":2,"submitted_y":0,"key":39,"move_direction":"left"},{"session_id":"5e35746ed0df4","trial_n":6,"move_n":"3","response_time":0.094,"submitted_x":3,"submitted_y":0,"key":39,"move_direction":"right"},{"session_id":"5e35746ed0df4","trial_n":6,"move_n":"4","response_time":0.208,"submitted_x":4,"submitted_y":0,"key":39,"move_direction":"right"},{"session_id":"5e35746ed0df4","trial_n":6,"move_n":"5","response_time":0.254,"submitted_x":5,"submitted_y":0,"key":39,"move_direction":"right"},{"session_id":"5e35746ed0df4","trial_n":6,"move_n":"6","response_time":0.092,"submitted_x":6,"submitted_y":0,"key":39,"move_direction":"right"},{"session_id":"5e35746ed0df4","trial_n":6,"move_n":"7","response_time":0.229,"submitted_x":6,"submitted_y":1,"key":40,"move_direction":"down"},{"session_id":"5e35746ed0df4","trial_n":6,"move_n":"8","response_time":0.055,"submitted_x":5,"submitted_y":1,"key":37,"move_direction":"left"},{"session_id":"5e35746ed0df4","trial_n":6,"move_n":"9","response_time":0.218,"submitted_x":4,"submitted_y":1,"key":37,"move_direction":"left"},{"session_id":"5e35746ed0df4","trial_n":6,"move_n":"10","response_time":0.194,"submitted_x":3,"submitted_y":1,"key":37,"move_direction":"left"},{"session_id":"5e35746ed0df4","trial_n":6,"move_n":"11","response_time":0.258,"submitted_x":2,"submitted_y":1,"key":37,"move_direction":"left"},{"session_id":"5e35746ed0df4","trial_n":6,"move_n":"12","response_time":0.249,"submitted_x":1,"submitted_y":1,"key":37,"move_direction":"left"},{"session_id":"5e35746ed0df4","trial_n":6,"move_n":"13","response_time":0.124,"submitted_x":0,"submitted_y":1,"key":39,"move_direction":"left"},{"session_id":"5e35746ed0df4","trial_n":6,"move_n":"14","response_time":0.688,"submitted_x":0,"submitted_y":0,"key":38,"move_direction":"up"},{"session_id":"5e35746ed0df4","trial_n":6,"move_n":"15","response_time":0.249,"submitted_x":0,"submitted_y":1,"key":39,"move_direction":"down"},{"session_id":"5e35746ed0df4","trial_n":6,"move_n":"16","response_time":0.045,"submitted_x":0,"submitted_y":0,"key":38,"move_direction":"up"},{"session_id":"5e35746ed0df4","trial_n":6,"move_n":"17","response_time":0.254,"submitted_x":1,"submitted_y":0,"key":39,"move_direction":"right"},{"session_id":"5e35746ed0df4","trial_n":6,"move_n":"18","response_time":0.339,"submitted_x":1,"submitted_y":1,"key":39,"move_direction":"down"},{"session_id":"5e35746ed0df4","trial_n":6,"move_n":"19","response_time":0.393,"submitted_x":1,"submitted_y":0,"key":39,"move_direction":"up"},{"session_id":"5e35746ed0df4","trial_n":6,"move_n":"20","response_time":0.303,"submitted_x":2,"submitted_y":0,"key":39,"move_direction":"right"},{"session_id":"5e35746ed0df4","trial_n":6,"move_n":"21","response_time":0.363,"submitted_x":3,"submitted_y":0,"key":39,"move_direction":"right"},{"session_id":"5e35746ed0df4","trial_n":7,"move_n":"1","response_time":2.115,"submitted_x":2,"submitted_y":1,"key":40,"move_direction":"down"},{"session_id":"5e35746ed0df4","trial_n":7,"move_n":"2","response_time":0.158,"submitted_x":1,"submitted_y":1,"key":37,"move_direction":"left"},{"session_id":"5e35746ed0df4","trial_n":8,"move_n":"1","response_time":0.909,"submitted_x":3,"submitted_y":0,"key":39,"move_direction":"right"},{"session_id":"5e35746ed0df4","trial_n":8,"move_n":"2","response_time":0.117,"submitted_x":3,"submitted_y":1,"key":40,"move_direction":"down"},{"session_id":"5e35746ed0df4","trial_n":8,"move_n":"3","response_time":0.187,"submitted_x":3,"submitted_y":2,"key":40,"move_direction":"down"},{"session_id":"5e35746ed0df4","trial_n":8,"move_n":"4","response_time":0.128,"submitted_x":3,"submitted_y":1,"key":40,"move_direction":"up"},{"session_id":"5e35746ed0df4","trial_n":8,"move_n":"5","response_time":0.318,"submitted_x":3,"submitted_y":2,"key":40,"move_direction":"down"},{"session_id":"5e35746ed0df4","trial_n":8,"move_n":"6","response_time":0.054,"submitted_x":2,"submitted_y":2,"key":37,"move_direction":"left"},{"session_id":"5e35746ed0df4","trial_n":8,"move_n":"7","response_time":0.386,"submitted_x":2,"submitted_y":3,"key":40,"move_direction":"down"},{"session_id":"5e35746ed0df4","trial_n":8,"move_n":"8","response_time":0.352,"submitted_x":1,"submitted_y":3,"key":37,"move_direction":"left"},{"session_id":"5e35746ed0df4","trial_n":9,"move_n":"1","response_time":1.462,"submitted_x":1,"submitted_y":0,"key":37,"move_direction":"left"},{"session_id":"5e35746ed0df4","trial_n":9,"move_n":"2","response_time":0.139,"submitted_x":1,"submitted_y":1,"key":40,"move_direction":"down"},{"session_id":"5e35746ed0df4","trial_n":9,"move_n":"3","response_time":0.02,"submitted_x":2,"submitted_y":1,"key":39,"move_direction":"right"},{"session_id":"5e35746ed0df4","trial_n":9,"move_n":"4","response_time":0.078,"submitted_x":3,"submitted_y":1,"key":39,"move_direction":"right"},{"session_id":"5e35746ed0df4","trial_n":9,"move_n":"5","response_time":0.548,"submitted_x":4,"submitted_y":1,"key":39,"move_direction":"right"},{"session_id":"5e35746ed0df4","trial_n":9,"move_n":"6","response_time":0.419,"submitted_x":5,"submitted_y":1,"key":39,"move_direction":"right"},{"session_id":"5e35746ed0df4","trial_n":9,"move_n":"7","response_time":0.506,"submitted_x":4,"submitted_y":1,"key":40,"move_direction":"left"},{"session_id":"5e35746ed0df4","trial_n":9,"move_n":"8","response_time":0.484,"submitted_x":5,"submitted_y":1,"key":39,"move_direction":"right"},{"session_id":"5e35746ed0df4","trial_n":9,"move_n":"9","response_time":0.434,"submitted_x":5,"submitted_y":2,"key":40,"move_direction":"down"},{"session_id":"5e35746ed0df4","trial_n":9,"move_n":"10","response_time":0.54,"submitted_x":4,"submitted_y":2,"key":40,"move_direction":"left"},{"session_id":"5e35746ed0df4","trial_n":9,"move_n":"11","response_time":0.412,"submitted_x":5,"submitted_y":2,"key":39,"move_direction":"right"},{"session_id":"5e35746ed0df4","trial_n":9,"move_n":"12","response_time":0.452,"submitted_x":5,"submitted_y":3,"key":40,"move_direction":"down"},{"session_id":"5e35746ed0df4","trial_n":10,"move_n":"1","response_time":1.89,"submitted_x":2,"submitted_y":1,"key":40,"move_direction":"down"},{"session_id":"5e35746ed0df4","trial_n":10,"move_n":"2","response_time":0.135,"submitted_x":2,"submitted_y":2,"key":40,"move_direction":"down"},{"session_id":"5e35746ed0df4","trial_n":10,"move_n":"3","response_time":0.388,"submitted_x":2,"submitted_y":3,"key":40,"move_direction":"down"},{"session_id":"5e35746ed0df4","trial_n":10,"move_n":"4","response_time":0.802,"submitted_x":1,"submitted_y":3,"key":37,"move_direction":"left"}]