[
    {
        "session_id": "64d8995a34008",
        "trial_n": 1,
        "move_n": "1",
        "response_time": 1.893,
        "submitted_x": 3,
        "submitted_y": 0,
        "key": 39,
        "move_direction": "right"
    },
    {
        "session_id": "64d8995a34008",
        "trial_n": 1,
        "move_n": "2",
        "response_time": 0.247,
        "submitted_x": 3,
        "submitted_y": 1,
        "key": 40,
        "move_direction": "down"
    },
    {
        "session_id": "64d8995a34008",
        "trial_n": 1,
        "move_n": "3",
        "response_time": 0.16,
        "submitted_x": 3,
        "submitted_y": 2,
        "key": 40,
        "move_direction": "down"
    },
    {
        "session_id": "64d8995a34008",
        "trial_n": 1,
        "move_n": "4",
        "response_time": 0.303,
        "submitted_x": 3,
        "submitted_y": 3,
        "key": 40,
        "move_direction": "down"
    },
    {
        "session_id": "64d8995a34008",
        "trial_n": 1,
        "move_n": "5",
        "response_time": 0.007,
        "submitted_x": 4,
        "submitted_y": 3,
        "key": 39,
        "move_direction": "right"
    },
    {
        "session_id": "64d8995a34008",
        "trial_n": 2,
        "move_n": "1",
        "response_time": 1.424,
        "submitted_x": 2,
        "submitted_y": 1,
        "key": 40,
        "move_direction": "down"
    },
    {
        "session_id": "64d8995a34008",
        "trial_n": 2,
        "move_n": "2",
        "response_time": 0.921,
        "submitted_x": 2,
        "submitted_y": 2,
        "key": 40,
        "move_direction": "down"
    },
    {
        "session_id": "64d8995a34008",
        "trial_n": 2,
        "move_n": "3",
        "response_time": 0.144,
        "submitted_x": 3,
        "submitted_y": 2,
        "key": 39,
        "move_direction": "right"
    },
    {
        "session_id": "64d8995a34008",
        "trial_n": 2,
        "move_n": "4",
        "response_time": 1.343,
        "submitted_x": 3,
        "submitted_y": 3,
        "key": 40,
        "move_direction": "down"
    },
    {
        "session_id": "64d8995a34008",
        "trial_n": 2,
        "move_n": "5",
        "response_time": 1.329,
        "submitted_x": 4,
        "submitted_y": 3,
        "key": 39,
        "move_direction": "right"
    },
    {
        "session_id": "64d8995a34008",
        "trial_n": 3,
        "move_n": "1",
        "response_time": 0.929,
        "submitted_x": 3,
        "submitted_y": 0,
        "key": 39,
        "move_direction": "right"
    },
    {
        "session_id": "64d8995a34008",
        "trial_n": 3,
        "move_n": "2",
        "response_time": 0.485,
        "submitted_x": 4,
        "submitted_y": 0,
        "key": 39,
        "move_direction": "right"
    },
    {
        "session_id": "64d8995a34008",
        "trial_n": 3,
        "move_n": "3",
        "response_time": 0.021,
        "submitted_x": 4,
        "submitted_y": 1,
        "key": 40,
        "move_direction": "down"
    },
    {
        "session_id": "64d8995a34008",
        "trial_n": 3,
        "move_n": "4",
        "response_time": 0.134,
        "submitted_x": 4,
        "submitted_y": 2,
        "key": 40,
        "move_direction": "down"
    },
    {
        "session_id": "64d8995a34008",
        "trial_n": 3,
        "move_n": "5",
        "response_time": 0.173,
        "submitted_x": 4,
        "submitted_y": 3,
        "key": 40,
        "move_direction": "down"
    },
    {
        "session_id": "64d8995a34008",
        "trial_n": 4,
        "move_n": "1",
        "response_time": 0.982,
        "submitted_x": 3,
        "submitted_y": 0,
        "key": 39,
        "move_direction": "right"
    },
    {
        "session_id": "64d8995a34008",
        "trial_n": 4,
        "move_n": "2",
        "response_time": 0.173,
        "submitted_x": 4,
        "submitted_y": 0,
        "key": 39,
        "move_direction": "right"
    },
    {
        "session_id": "64d8995a34008",
        "trial_n": 4,
        "move_n": "3",
        "response_time": 0.614,
        "submitted_x": 4,
        "submitted_y": 1,
        "key": 40,
        "move_direction": "down"
    },
    {
        "session_id": "64d8995a34008",
        "trial_n": 4,
        "move_n": "4",
        "response_time": 0.099,
        "submitted_x": 4,
        "submitted_y": 2,
        "key": 40,
        "move_direction": "down"
    },
    {
        "session_id": "64d8995a34008",
        "trial_n": 4,
        "move_n": "5",
        "response_time": 0.542,
        "submitted_x": 4,
        "submitted_y": 3,
        "key": 40,
        "move_direction": "down"
    },
    {
        "session_id": "64d8995a34008",
        "trial_n": 5,
        "move_n": "1",
        "response_time": 2.074,
        "submitted_x": 2,
        "submitted_y": 1,
        "key": 40,
        "move_direction": "down"
    },
    {
        "session_id": "64d8995a34008",
        "trial_n": 5,
        "move_n": "2",
        "response_time": 1.035,
        "submitted_x": 2,
        "submitted_y": 2,
        "key": 40,
        "move_direction": "down"
    },
    {
        "session_id": "64d8995a34008",
        "trial_n": 5,
        "move_n": "3",
        "response_time": 0.481,
        "submitted_x": 2,
        "submitted_y": 1,
        "key": 40,
        "move_direction": "up"
    },
    {
        "session_id": "64d8995a34008",
        "trial_n": 5,
        "move_n": "4",
        "response_time": 0.469,
        "submitted_x": 2,
        "submitted_y": 0,
        "key": 40,
        "move_direction": "up"
    },
    {
        "session_id": "64d8995a34008",
        "trial_n": 5,
        "move_n": "5",
        "response_time": 3.205,
        "submitted_x": 2,
        "submitted_y": 1,
        "key": 40,
        "move_direction": "down"
    },
    {
        "session_id": "64d8995a34008",
        "trial_n": 5,
        "move_n": "6",
        "response_time": 0.394,
        "submitted_x": 2,
        "submitted_y": 2,
        "key": 40,
        "move_direction": "down"
    },
    {
        "session_id": "64d8995a34008",
        "trial_n": 5,
        "move_n": "7",
        "response_time": 0.77,
        "submitted_x": 2,
        "submitted_y": 3,
        "key": 40,
        "move_direction": "down"
    },
    {
        "session_id": "64d8995a34008",
        "trial_n": 5,
        "move_n": "8",
        "response_time": 1.013,
        "submitted_x": 1,
        "submitted_y": 3,
        "key": 37,
        "move_direction": "left"
    },
    {
        "session_id": "64d8995a34008",
        "trial_n": 6,
        "move_n": "1",
        "response_time": 3.603,
        "submitted_x": 3,
        "submitted_y": 0,
        "key": 39,
        "move_direction": "right"
    },
    {
        "session_id": "64d8995a34008",
        "trial_n": 6,
        "move_n": "2",
        "response_time": 0.489,
        "submitted_x": 2,
        "submitted_y": 0,
        "key": 40,
        "move_direction": "left"
    },
    {
        "session_id": "64d8995a34008",
        "trial_n": 6,
        "move_n": "3",
        "response_time": 0.437,
        "submitted_x": 3,
        "submitted_y": 0,
        "key": 39,
        "move_direction": "right"
    },
    {
        "session_id": "64d8995a34008",
        "trial_n": 6,
        "move_n": "4",
        "response_time": 0.457,
        "submitted_x": 3,
        "submitted_y": 1,
        "key": 40,
        "move_direction": "down"
    },
    {
        "session_id": "64d8995a34008",
        "trial_n": 6,
        "move_n": "5",
        "response_time": 0.482,
        "submitted_x": 3,
        "submitted_y": 2,
        "key": 40,
        "move_direction": "down"
    },
    {
        "session_id": "64d8995a34008",
        "trial_n": 6,
        "move_n": "6",
        "response_time": 0.355,
        "submitted_x": 4,
        "submitted_y": 2,
        "key": 39,
        "move_direction": "right"
    },
    {
        "session_id": "64d8995a34008",
        "trial_n": 6,
        "move_n": "7",
        "response_time": 0.339,
        "submitted_x": 4,
        "submitted_y": 3,
        "key": 40,
        "move_direction": "down"
    },
    {
        "session_id": "64d8995a34008",
        "trial_n": 6,
        "move_n": "8",
        "response_time": 0.345,
        "submitted_x": 5,
        "submitted_y": 3,
        "key": 39,
        "move_direction": "right"
    },
    {
        "session_id": "64d8995a34008",
        "trial_n": 6,
        "move_n": "9",
        "response_time": 0.369,
        "submitted_x": 4,
        "submitted_y": 3,
        "key": 39,
        "move_direction": "left"
    },
    {
        "session_id": "64d8995a34008",
        "trial_n": 6,
        "move_n": "10",
        "response_time": 0.429,
        "submitted_x": 5,
        "submitted_y": 3,
        "key": 39,
        "move_direction": "right"
    },
    {
        "session_id": "64d8995a34008",
        "trial_n": 6,
        "move_n": "11",
        "response_time": 0.446,
        "submitted_x": 6,
        "submitted_y": 3,
        "key": 39,
        "move_direction": "right"
    },
    {
        "session_id": "64d8995a34008",
        "trial_n": 7,
        "move_n": "1",
        "response_time": 2.801,
        "submitted_x": 0,
        "submitted_y": 1,
        "key": 40,
        "move_direction": "down"
    },
    {
        "session_id": "64d8995a34008",
        "trial_n": 7,
        "move_n": "2",
        "response_time": 0.195,
        "submitted_x": 0,
        "submitted_y": 0,
        "key": 39,
        "move_direction": "up"
    },
    {
        "session_id": "64d8995a34008",
        "trial_n": 7,
        "move_n": "3",
        "response_time": 0.393,
        "submitted_x": 0,
        "submitted_y": 1,
        "key": 40,
        "move_direction": "down"
    },
    {
        "session_id": "64d8995a34008",
        "trial_n": 7,
        "move_n": "4",
        "response_time": 0.379,
        "submitted_x": 1,
        "submitted_y": 1,
        "key": 39,
        "move_direction": "right"
    },
    {
        "session_id": "64d8995a34008",
        "trial_n": 7,
        "move_n": "5",
        "response_time": 1.01,
        "submitted_x": 1,
        "submitted_y": 2,
        "key": 40,
        "move_direction": "down"
    },
    {
        "session_id": "64d8995a34008",
        "trial_n": 7,
        "move_n": "6",
        "response_time": 0.361,
        "submitted_x": 2,
        "submitted_y": 2,
        "key": 39,
        "move_direction": "right"
    },
    {
        "session_id": "64d8995a34008",
        "trial_n": 7,
        "move_n": "7",
        "response_time": 0.287,
        "submitted_x": 3,
        "submitted_y": 2,
        "key": 39,
        "move_direction": "right"
    },
    {
        "session_id": "64d8995a34008",
        "trial_n": 7,
        "move_n": "8",
        "response_time": 0.316,
        "submitted_x": 4,
        "submitted_y": 2,
        "key": 39,
        "move_direction": "right"
    },
    {
        "session_id": "64d8995a34008",
        "trial_n": 7,
        "move_n": "9",
        "response_time": 0.358,
        "submitted_x": 5,
        "submitted_y": 2,
        "key": 39,
        "move_direction": "right"
    },
    {
        "session_id": "64d8995a34008",
        "trial_n": 7,
        "move_n": "10",
        "response_time": 0.304,
        "submitted_x": 5,
        "submitted_y": 3,
        "key": 40,
        "move_direction": "down"
    },
    {
        "session_id": "64d8995a34008",
        "trial_n": 8,
        "move_n": "1",
        "response_time": 12.117,
        "submitted_x": 1,
        "submitted_y": 0,
        "key": 39,
        "move_direction": "right"
    },
    {
        "session_id": "64d8995a34008",
        "trial_n": 8,
        "move_n": "2",
        "response_time": 0.936,
        "submitted_x": 2,
        "submitted_y": 0,
        "key": 39,
        "move_direction": "right"
    },
    {
        "session_id": "64d8995a34008",
        "trial_n": 8,
        "move_n": "3",
        "response_time": 0.883,
        "submitted_x": 3,
        "submitted_y": 0,
        "key": 39,
        "move_direction": "right"
    },
    {
        "session_id": "64d8995a34008",
        "trial_n": 8,
        "move_n": "4",
        "response_time": 0.275,
        "submitted_x": 4,
        "submitted_y": 0,
        "key": 39,
        "move_direction": "right"
    },
    {
        "session_id": "64d8995a34008",
        "trial_n": 8,
        "move_n": "5",
        "response_time": 0.009,
        "submitted_x": 4,
        "submitted_y": 1,
        "key": 40,
        "move_direction": "down"
    },
    {
        "session_id": "64d8995a34008",
        "trial_n": 8,
        "move_n": "6",
        "response_time": 0.301,
        "submitted_x": 4,
        "submitted_y": 2,
        "key": 40,
        "move_direction": "down"
    },
    {
        "session_id": "64d8995a34008",
        "trial_n": 8,
        "move_n": "7",
        "response_time": 34.494,
        "submitted_x": 3,
        "submitted_y": 2,
        "key": 37,
        "move_direction": "left"
    },
    {
        "session_id": "64d8995a34008",
        "trial_n": 9,
        "move_n": "1",
        "response_time": 2.479,
        "submitted_x": 0,
        "submitted_y": 2,
        "key": 40,
        "move_direction": "down"
    },
    {
        "session_id": "64d8995a34008",
        "trial_n": 9,
        "move_n": "2",
        "response_time": 0.379,
        "submitted_x": 0,
        "submitted_y": 3,
        "key": 40,
        "move_direction": "down"
    },
    {
        "session_id": "64d8995a34008",
        "trial_n": 9,
        "move_n": "3",
        "response_time": 0.169,
        "submitted_x": 1,
        "submitted_y": 3,
        "key": 39,
        "move_direction": "right"
    },
    {
        "session_id": "64d8995a34008",
        "trial_n": 9,
        "move_n": "4",
        "response_time": 0.318,
        "submitted_x": 0,
        "submitted_y": 3,
        "key": 39,
        "move_direction": "left"
    },
    {
        "session_id": "64d8995a34008",
        "trial_n": 9,
        "move_n": "5",
        "response_time": 0.318,
        "submitted_x": 1,
        "submitted_y": 3,
        "key": 39,
        "move_direction": "right"
    },
    {
        "session_id": "64d8995a34008",
        "trial_n": 9,
        "move_n": "6",
        "response_time": 0.038,
        "submitted_x": 2,
        "submitted_y": 3,
        "key": 39,
        "move_direction": "right"
    },
    {
        "session_id": "64d8995a34008",
        "trial_n": 9,
        "move_n": "7",
        "response_time": 0.272,
        "submitted_x": 3,
        "submitted_y": 3,
        "key": 39,
        "move_direction": "right"
    },
    {
        "session_id": "64d8995a34008",
        "trial_n": 9,
        "move_n": "8",
        "response_time": 0.301,
        "submitted_x": 3,
        "submitted_y": 2,
        "key": 39,
        "move_direction": "up"
    },
    {
        "session_id": "64d8995a34008",
        "trial_n": 10,
        "move_n": "1",
        "response_time": 0.968,
        "submitted_x": 0,
        "submitted_y": 2,
        "key": 38,
        "move_direction": "up"
    },
    {
        "session_id": "64d8995a34008",
        "trial_n": 10,
        "move_n": "2",
        "response_time": 0.071,
        "submitted_x": 0,
        "submitted_y": 1,
        "key": 38,
        "move_direction": "up"
    },
    {
        "session_id": "64d8995a34008",
        "trial_n": 10,
        "move_n": "3",
        "response_time": 0.226,
        "submitted_x": 1,
        "submitted_y": 1,
        "key": 39,
        "move_direction": "right"
    },
    {
        "session_id": "64d8995a34008",
        "trial_n": 10,
        "move_n": "4",
        "response_time": 0.043,
        "submitted_x": 1,
        "submitted_y": 2,
        "key": 39,
        "move_direction": "down"
    },
    {
        "session_id": "64d8995a34008",
        "trial_n": 10,
        "move_n": "5",
        "response_time": 0.428,
        "submitted_x": 1,
        "submitted_y": 1,
        "key": 38,
        "move_direction": "up"
    },
    {
        "session_id": "64d8995a34008",
        "trial_n": 10,
        "move_n": "6",
        "response_time": 0.101,
        "submitted_x": 2,
        "submitted_y": 1,
        "key": 39,
        "move_direction": "right"
    },
    {
        "session_id": "64d8995a34008",
        "trial_n": 10,
        "move_n": "7",
        "response_time": 0.065,
        "submitted_x": 2,
        "submitted_y": 0,
        "key": 38,
        "move_direction": "up"
    },
    {
        "session_id": "64d8995a34008",
        "trial_n": 10,
        "move_n": "8",
        "response_time": 0.221,
        "submitted_x": 3,
        "submitted_y": 0,
        "key": 39,
        "move_direction": "right"
    },
    {
        "session_id": "64d8995a34008",
        "trial_n": 10,
        "move_n": "9",
        "response_time": 0.291,
        "submitted_x": 4,
        "submitted_y": 0,
        "key": 39,
        "move_direction": "right"
    },
    {
        "session_id": "64d8995a34008",
        "trial_n": 10,
        "move_n": "10",
        "response_time": 0.118,
        "submitted_x": 5,
        "submitted_y": 0,
        "key": 39,
        "move_direction": "right"
    },
    {
        "session_id": "64d8995a34008",
        "trial_n": 10,
        "move_n": "11",
        "response_time": 0.4,
        "submitted_x": 5,
        "submitted_y": 1,
        "key": 40,
        "move_direction": "down"
    },
    {
        "session_id": "64d8995a34008",
        "trial_n": 10,
        "move_n": "12",
        "response_time": 0.118,
        "submitted_x": 6,
        "submitted_y": 1,
        "key": 39,
        "move_direction": "right"
    },
    {
        "session_id": "64d8995a34008",
        "trial_n": 10,
        "move_n": "13",
        "response_time": 0.275,
        "submitted_x": 5,
        "submitted_y": 1,
        "key": 40,
        "move_direction": "left"
    },
    {
        "session_id": "64d8995a34008",
        "trial_n": 10,
        "move_n": "14",
        "response_time": 0.422,
        "submitted_x": 6,
        "submitted_y": 1,
        "key": 39,
        "move_direction": "right"
    },
    {
        "session_id": "64d8995a34008",
        "trial_n": 10,
        "move_n": "15",
        "response_time": 0.312,
        "submitted_x": 5,
        "submitted_y": 1,
        "key": 40,
        "move_direction": "left"
    },
    {
        "session_id": "64d8995a34008",
        "trial_n": 10,
        "move_n": "16",
        "response_time": 0.496,
        "submitted_x": 6,
        "submitted_y": 1,
        "key": 39,
        "move_direction": "right"
    },
    {
        "session_id": "64d8995a34008",
        "trial_n": 10,
        "move_n": "17",
        "response_time": 0.187,
        "submitted_x": 6,
        "submitted_y": 2,
        "key": 40,
        "move_direction": "down"
    },
    {
        "session_id": "64d8995a34008",
        "trial_n": 10,
        "move_n": "18",
        "response_time": 0.259,
        "submitted_x": 6,
        "submitted_y": 3,
        "key": 40,
        "move_direction": "down"
    },
    {
        "session_id": "64d8995a34008",
        "trial_n": 11,
        "move_n": "1",
        "response_time": 1.58,
        "submitted_x": 1,
        "submitted_y": 3,
        "key": 40,
        "move_direction": "right"
    },
    {
        "session_id": "64d8995a34008",
        "trial_n": 11,
        "move_n": "2",
        "response_time": 0.402,
        "submitted_x": 0,
        "submitted_y": 3,
        "key": 38,
        "move_direction": "left"
    },
    {
        "session_id": "64d8995a34008",
        "trial_n": 11,
        "move_n": "3",
        "response_time": 0.454,
        "submitted_x": 0,
        "submitted_y": 2,
        "key": 38,
        "move_direction": "up"
    },
    {
        "session_id": "64d8995a34008",
        "trial_n": 11,
        "move_n": "4",
        "response_time": 0.383,
        "submitted_x": 0,
        "submitted_y": 3,
        "key": 38,
        "move_direction": "down"
    },
    {
        "session_id": "64d8995a34008",
        "trial_n": 11,
        "move_n": "5",
        "response_time": 0.374,
        "submitted_x": 0,
        "submitted_y": 2,
        "key": 38,
        "move_direction": "up"
    },
    {
        "session_id": "64d8995a34008",
        "trial_n": 11,
        "move_n": "6",
        "response_time": 0.826,
        "submitted_x": 0,
        "submitted_y": 1,
        "key": 38,
        "move_direction": "up"
    },
    {
        "session_id": "64d8995a34008",
        "trial_n": 11,
        "move_n": "7",
        "response_time": 0.595,
        "submitted_x": 1,
        "submitted_y": 1,
        "key": 39,
        "move_direction": "right"
    },
    {
        "session_id": "64d8995a34008",
        "trial_n": 11,
        "move_n": "8",
        "response_time": 0.257,
        "submitted_x": 2,
        "submitted_y": 1,
        "key": 39,
        "move_direction": "right"
    },
    {
        "session_id": "64d8995a34008",
        "trial_n": 11,
        "move_n": "9",
        "response_time": 0.278,
        "submitted_x": 3,
        "submitted_y": 1,
        "key": 39,
        "move_direction": "right"
    },
    {
        "session_id": "64d8995a34008",
        "trial_n": 11,
        "move_n": "10",
        "response_time": 0.247,
        "submitted_x": 4,
        "submitted_y": 1,
        "key": 39,
        "move_direction": "right"
    },
    {
        "session_id": "64d8995a34008",
        "trial_n": 11,
        "move_n": "11",
        "response_time": 0.271,
        "submitted_x": 5,
        "submitted_y": 1,
        "key": 39,
        "move_direction": "right"
    },
    {
        "session_id": "64d8995a34008",
        "trial_n": 11,
        "move_n": "12",
        "response_time": 0.746,
        "submitted_x": 6,
        "submitted_y": 1,
        "key": 39,
        "move_direction": "right"
    },
    {
        "session_id": "64d8995a34008",
        "trial_n": 11,
        "move_n": "13",
        "response_time": 0.064,
        "submitted_x": 6,
        "submitted_y": 2,
        "key": 40,
        "move_direction": "down"
    },
    {
        "session_id": "64d8995a34008",
        "trial_n": 11,
        "move_n": "14",
        "response_time": 0.204,
        "submitted_x": 6,
        "submitted_y": 3,
        "key": 40,
        "move_direction": "down"
    },
    {
        "session_id": "64d8995a34008",
        "trial_n": 12,
        "move_n": "1",
        "response_time": 1.514,
        "submitted_x": 5,
        "submitted_y": 3,
        "key": 37,
        "move_direction": "left"
    },
    {
        "session_id": "64d8995a34008",
        "trial_n": 12,
        "move_n": "2",
        "response_time": 0.035,
        "submitted_x": 4,
        "submitted_y": 3,
        "key": 37,
        "move_direction": "left"
    },
    {
        "session_id": "64d8995a34008",
        "trial_n": 12,
        "move_n": "3",
        "response_time": 0.068,
        "submitted_x": 3,
        "submitted_y": 3,
        "key": 37,
        "move_direction": "left"
    },
    {
        "session_id": "64d8995a34008",
        "trial_n": 12,
        "move_n": "4",
        "response_time": 42.696,
        "submitted_x": 4,
        "submitted_y": 3,
        "key": 38,
        "move_direction": "right"
    },
    {
        "session_id": "64d8995a34008",
        "trial_n": 12,
        "move_n": "5",
        "response_time": 0.161,
        "submitted_x": 4,
        "submitted_y": 2,
        "key": 38,
        "move_direction": "up"
    },
    {
        "session_id": "64d8995a34008",
        "trial_n": 12,
        "move_n": "6",
        "response_time": 0.147,
        "submitted_x": 4,
        "submitted_y": 1,
        "key": 38,
        "move_direction": "up"
    },
    {
        "session_id": "64d8995a34008",
        "trial_n": 12,
        "move_n": "7",
        "response_time": 0.146,
        "submitted_x": 4,
        "submitted_y": 0,
        "key": 38,
        "move_direction": "up"
    },
    {
        "session_id": "64d8995a34008",
        "trial_n": 12,
        "move_n": "8",
        "response_time": 0.728,
        "submitted_x": 5,
        "submitted_y": 0,
        "key": 39,
        "move_direction": "right"
    },
    {
        "session_id": "64d8995a34008",
        "trial_n": 13,
        "move_n": "1",
        "response_time": 1.104,
        "submitted_x": 2,
        "submitted_y": 2,
        "key": 39,
        "move_direction": "up"
    },
    {
        "session_id": "64d8995a34008",
        "trial_n": 14,
        "move_n": "1",
        "response_time": 1.115,
        "submitted_x": 4,
        "submitted_y": 3,
        "key": 37,
        "move_direction": "left"
    },
    {
        "session_id": "64d8995a34008",
        "trial_n": 14,
        "move_n": "2",
        "response_time": 0.031,
        "submitted_x": 3,
        "submitted_y": 3,
        "key": 37,
        "move_direction": "left"
    },
    {
        "session_id": "64d8995a34008",
        "trial_n": 14,
        "move_n": "3",
        "response_time": 0.352,
        "submitted_x": 2,
        "submitted_y": 3,
        "key": 37,
        "move_direction": "left"
    },
    {
        "session_id": "64d8995a34008",
        "trial_n": 14,
        "move_n": "4",
        "response_time": 0.125,
        "submitted_x": 1,
        "submitted_y": 3,
        "key": 37,
        "move_direction": "left"
    },
    {
        "session_id": "64d8995a34008",
        "trial_n": 14,
        "move_n": "5",
        "response_time": 2.826,
        "submitted_x": 1,
        "submitted_y": 2,
        "key": 38,
        "move_direction": "up"
    },
    {
        "session_id": "64d8995a34008",
        "trial_n": 14,
        "move_n": "6",
        "response_time": 0.281,
        "submitted_x": 1,
        "submitted_y": 3,
        "key": 38,
        "move_direction": "down"
    },
    {
        "session_id": "64d8995a34008",
        "trial_n": 14,
        "move_n": "7",
        "response_time": 0.41,
        "submitted_x": 1,
        "submitted_y": 2,
        "key": 38,
        "move_direction": "up"
    },
    {
        "session_id": "64d8995a34008",
        "trial_n": 14,
        "move_n": "8",
        "response_time": 0.246,
        "submitted_x": 1,
        "submitted_y": 1,
        "key": 38,
        "move_direction": "up"
    },
    {
        "session_id": "64d8995a34008",
        "trial_n": 14,
        "move_n": "9",
        "response_time": 0.368,
        "submitted_x": 2,
        "submitted_y": 1,
        "key": 39,
        "move_direction": "right"
    },
    {
        "session_id": "64d8995a34008",
        "trial_n": 14,
        "move_n": "10",
        "response_time": 0.183,
        "submitted_x": 1,
        "submitted_y": 1,
        "key": 37,
        "move_direction": "left"
    },
    {
        "session_id": "64d8995a34008",
        "trial_n": 14,
        "move_n": "11",
        "response_time": 0.438,
        "submitted_x": 2,
        "submitted_y": 1,
        "key": 39,
        "move_direction": "right"
    },
    {
        "session_id": "64d8995a34008",
        "trial_n": 14,
        "move_n": "12",
        "response_time": 0.395,
        "submitted_x": 2,
        "submitted_y": 0,
        "key": 38,
        "move_direction": "up"
    },
    {
        "session_id": "64d8995a34008",
        "trial_n": 14,
        "move_n": "13",
        "response_time": 0.914,
        "submitted_x": 2,
        "submitted_y": 1,
        "key": 39,
        "move_direction": "down"
    },
    {
        "session_id": "64d8995a34008",
        "trial_n": 14,
        "move_n": "14",
        "response_time": 0.447,
        "submitted_x": 2,
        "submitted_y": 0,
        "key": 38,
        "move_direction": "up"
    },
    {
        "session_id": "64d8995a34008",
        "trial_n": 14,
        "move_n": "15",
        "response_time": 0.36,
        "submitted_x": 3,
        "submitted_y": 0,
        "key": 39,
        "move_direction": "right"
    },
    {
        "session_id": "64d8995a34008",
        "trial_n": 15,
        "move_n": "1",
        "response_time": 2.088,
        "submitted_x": 2,
        "submitted_y": 1,
        "key": 40,
        "move_direction": "down"
    },
    {
        "session_id": "64d8995a34008",
        "trial_n": 15,
        "move_n": "2",
        "response_time": 55.107,
        "submitted_x": 2,
        "submitted_y": 2,
        "key": 40,
        "move_direction": "down"
    },
    {
        "session_id": "64d8995a34008",
        "trial_n": 15,
        "move_n": "3",
        "response_time": 0.346,
        "submitted_x": 2,
        "submitted_y": 3,
        "key": 40,
        "move_direction": "down"
    },
    {
        "session_id": "64d8995a34008",
        "trial_n": 15,
        "move_n": "4",
        "response_time": 0.2,
        "submitted_x": 1,
        "submitted_y": 3,
        "key": 37,
        "move_direction": "left"
    },
    {
        "session_id": "64d8995a34008",
        "trial_n": 16,
        "move_n": "1",
        "response_time": 2.361,
        "submitted_x": 3,
        "submitted_y": 0,
        "key": 39,
        "move_direction": "right"
    },
    {
        "session_id": "64d8995a34008",
        "trial_n": 16,
        "move_n": "2",
        "response_time": 0.154,
        "submitted_x": 3,
        "submitted_y": 1,
        "key": 40,
        "move_direction": "down"
    },
    {
        "session_id": "64d8995a34008",
        "trial_n": 16,
        "move_n": "3",
        "response_time": 0.124,
        "submitted_x": 3,
        "submitted_y": 2,
        "key": 40,
        "move_direction": "down"
    },
    {
        "session_id": "64d8995a34008",
        "trial_n": 16,
        "move_n": "4",
        "response_time": 0.044,
        "submitted_x": 4,
        "submitted_y": 2,
        "key": 39,
        "move_direction": "right"
    },
    {
        "session_id": "64d8995a34008",
        "trial_n": 16,
        "move_n": "5",
        "response_time": 0.024,
        "submitted_x": 4,
        "submitted_y": 3,
        "key": 40,
        "move_direction": "down"
    },
    {
        "session_id": "64d8995a34008",
        "trial_n": 16,
        "move_n": "6",
        "response_time": 0.096,
        "submitted_x": 5,
        "submitted_y": 3,
        "key": 39,
        "move_direction": "right"
    },
    {
        "session_id": "64d8995a34008",
        "trial_n": 16,
        "move_n": "7",
        "response_time": 0.298,
        "submitted_x": 6,
        "submitted_y": 3,
        "key": 39,
        "move_direction": "right"
    },
    {
        "session_id": "64d8995a34008",
        "trial_n": 17,
        "move_n": "1",
        "response_time": 1.494,
        "submitted_x": 0,
        "submitted_y": 1,
        "key": 40,
        "move_direction": "down"
    },
    {
        "session_id": "64d8995a34008",
        "trial_n": 17,
        "move_n": "2",
        "response_time": 0.425,
        "submitted_x": 0,
        "submitted_y": 2,
        "key": 40,
        "move_direction": "down"
    },
    {
        "session_id": "64d8995a34008",
        "trial_n": 17,
        "move_n": "3",
        "response_time": 0.187,
        "submitted_x": 1,
        "submitted_y": 2,
        "key": 39,
        "move_direction": "right"
    },
    {
        "session_id": "64d8995a34008",
        "trial_n": 17,
        "move_n": "4",
        "response_time": 0.074,
        "submitted_x": 2,
        "submitted_y": 2,
        "key": 39,
        "move_direction": "right"
    },
    {
        "session_id": "64d8995a34008",
        "trial_n": 17,
        "move_n": "5",
        "response_time": 0.255,
        "submitted_x": 1,
        "submitted_y": 2,
        "key": 39,
        "move_direction": "left"
    },
    {
        "session_id": "64d8995a34008",
        "trial_n": 17,
        "move_n": "6",
        "response_time": 0.223,
        "submitted_x": 2,
        "submitted_y": 2,
        "key": 39,
        "move_direction": "right"
    },
    {
        "session_id": "64d8995a34008",
        "trial_n": 17,
        "move_n": "7",
        "response_time": 0.051,
        "submitted_x": 1,
        "submitted_y": 2,
        "key": 39,
        "move_direction": "left"
    },
    {
        "session_id": "64d8995a34008",
        "trial_n": 17,
        "move_n": "8",
        "response_time": 0.261,
        "submitted_x": 2,
        "submitted_y": 2,
        "key": 39,
        "move_direction": "right"
    },
    {
        "session_id": "64d8995a34008",
        "trial_n": 17,
        "move_n": "9",
        "response_time": 0.341,
        "submitted_x": 3,
        "submitted_y": 2,
        "key": 39,
        "move_direction": "right"
    },
    {
        "session_id": "64d8995a34008",
        "trial_n": 17,
        "move_n": "10",
        "response_time": 0.212,
        "submitted_x": 4,
        "submitted_y": 2,
        "key": 39,
        "move_direction": "right"
    },
    {
        "session_id": "64d8995a34008",
        "trial_n": 17,
        "move_n": "11",
        "response_time": 0.419,
        "submitted_x": 4,
        "submitted_y": 3,
        "key": 39,
        "move_direction": "down"
    },
    {
        "session_id": "64d8995a34008",
        "trial_n": 18,
        "move_n": "1",
        "response_time": 2.028,
        "submitted_x": 1,
        "submitted_y": 0,
        "key": 39,
        "move_direction": "right"
    },
    {
        "session_id": "64d8995a34008",
        "trial_n": 18,
        "move_n": "2",
        "response_time": 0.165,
        "submitted_x": 2,
        "submitted_y": 0,
        "key": 39,
        "move_direction": "right"
    },
    {
        "session_id": "64d8995a34008",
        "trial_n": 18,
        "move_n": "3",
        "response_time": 0.511,
        "submitted_x": 3,
        "submitted_y": 0,
        "key": 39,
        "move_direction": "right"
    }
]