[
    {
        "session_id": "7046e50b60c89",
        "trial_n": 1,
        "move_n": "1",
        "response_time": 0.887,
        "submitted_x": 3,
        "submitted_y": 0,
        "key": 39,
        "move_direction": "right"
    },
    {
        "session_id": "7046e50b60c89",
        "trial_n": 1,
        "move_n": "2",
        "response_time": 0.565,
        "submitted_x": 4,
        "submitted_y": 0,
        "key": 40,
        "move_direction": "right"
    },
    {
        "session_id": "7046e50b60c89",
        "trial_n": 1,
        "move_n": "3",
        "response_time": 2.573,
        "submitted_x": 4,
        "submitted_y": 1,
        "key": 40,
        "move_direction": "down"
    },
    {
        "session_id": "7046e50b60c89",
        "trial_n": 1,
        "move_n": "4",
        "response_time": 0.457,
        "submitted_x": 4,
        "submitted_y": 2,
        "key": 40,
        "move_direction": "down"
    },
    {
        "session_id": "7046e50b60c89",
        "trial_n": 1,
        "move_n": "5",
        "response_time": 0.454,
        "submitted_x": 4,
        "submitted_y": 3,
        "key": 40,
        "move_direction": "down"
    },
    {
        "session_id": "7046e50b60c89",
        "trial_n": 2,
        "move_n": "1",
        "response_time": 0.737,
        "submitted_x": 3,
        "submitted_y": 0,
        "key": 39,
        "move_direction": "right"
    },
    {
        "session_id": "7046e50b60c89",
        "trial_n": 2,
        "move_n": "2",
        "response_time": 0.251,
        "submitted_x": 3,
        "submitted_y": 1,
        "key": 40,
        "move_direction": "down"
    },
    {
        "session_id": "7046e50b60c89",
        "trial_n": 2,
        "move_n": "3",
        "response_time": 0.276,
        "submitted_x": 4,
        "submitted_y": 1,
        "key": 40,
        "move_direction": "right"
    },
    {
        "session_id": "7046e50b60c89",
        "trial_n": 2,
        "move_n": "4",
        "response_time": 0.252,
        "submitted_x": 4,
        "submitted_y": 2,
        "key": 40,
        "move_direction": "down"
    },
    {
        "session_id": "7046e50b60c89",
        "trial_n": 2,
        "move_n": "5",
        "response_time": 0.497,
        "submitted_x": 4,
        "submitted_y": 3,
        "key": 40,
        "move_direction": "down"
    },
    {
        "session_id": "7046e50b60c89",
        "trial_n": 3,
        "move_n": "1",
        "response_time": 0.992,
        "submitted_x": 3,
        "submitted_y": 0,
        "key": 39,
        "move_direction": "right"
    },
    {
        "session_id": "7046e50b60c89",
        "trial_n": 3,
        "move_n": "2",
        "response_time": 0.566,
        "submitted_x": 3,
        "submitted_y": 1,
        "key": 40,
        "move_direction": "down"
    },
    {
        "session_id": "7046e50b60c89",
        "trial_n": 4,
        "move_n": "1",
        "response_time": 1.027,
        "submitted_x": 2,
        "submitted_y": 1,
        "key": 40,
        "move_direction": "down"
    },
    {
        "session_id": "7046e50b60c89",
        "trial_n": 5,
        "move_n": "1",
        "response_time": 0.589,
        "submitted_x": 3,
        "submitted_y": 0,
        "key": 39,
        "move_direction": "right"
    },
    {
        "session_id": "7046e50b60c89",
        "trial_n": 5,
        "move_n": "2",
        "response_time": 0.118,
        "submitted_x": 2,
        "submitted_y": 0,
        "key": 40,
        "move_direction": "left"
    },
    {
        "session_id": "7046e50b60c89",
        "trial_n": 5,
        "move_n": "3",
        "response_time": 0.365,
        "submitted_x": 2,
        "submitted_y": 1,
        "key": 40,
        "move_direction": "down"
    },
    {
        "session_id": "7046e50b60c89",
        "trial_n": 5,
        "move_n": "4",
        "response_time": 0.255,
        "submitted_x": 2,
        "submitted_y": 2,
        "key": 40,
        "move_direction": "down"
    },
    {
        "session_id": "7046e50b60c89",
        "trial_n": 5,
        "move_n": "5",
        "response_time": 0.315,
        "submitted_x": 2,
        "submitted_y": 1,
        "key": 40,
        "move_direction": "up"
    },
    {
        "session_id": "7046e50b60c89",
        "trial_n": 5,
        "move_n": "6",
        "response_time": 0.272,
        "submitted_x": 1,
        "submitted_y": 1,
        "key": 40,
        "move_direction": "left"
    },
    {
        "session_id": "7046e50b60c89",
        "trial_n": 6,
        "move_n": "1",
        "response_time": 0.6,
        "submitted_x": 3,
        "submitted_y": 0,
        "key": 39,
        "move_direction": "right"
    },
    {
        "session_id": "7046e50b60c89",
        "trial_n": 6,
        "move_n": "2",
        "response_time": 0.095,
        "submitted_x": 3,
        "submitted_y": 1,
        "key": 40,
        "move_direction": "down"
    },
    {
        "session_id": "7046e50b60c89",
        "trial_n": 6,
        "move_n": "3",
        "response_time": 0.251,
        "submitted_x": 3,
        "submitted_y": 2,
        "key": 40,
        "move_direction": "down"
    },
    {
        "session_id": "7046e50b60c89",
        "trial_n": 6,
        "move_n": "4",
        "response_time": 0.293,
        "submitted_x": 4,
        "submitted_y": 2,
        "key": 39,
        "move_direction": "right"
    },
    {
        "session_id": "7046e50b60c89",
        "trial_n": 6,
        "move_n": "5",
        "response_time": 0.317,
        "submitted_x": 4,
        "submitted_y": 3,
        "key": 40,
        "move_direction": "down"
    },
    {
        "session_id": "7046e50b60c89",
        "trial_n": 6,
        "move_n": "6",
        "response_time": 6.977,
        "submitted_x": 5,
        "submitted_y": 3,
        "key": 39,
        "move_direction": "right"
    },
    {
        "session_id": "7046e50b60c89",
        "trial_n": 6,
        "move_n": "7",
        "response_time": 0.343,
        "submitted_x": 6,
        "submitted_y": 3,
        "key": 39,
        "move_direction": "right"
    },
    {
        "session_id": "7046e50b60c89",
        "trial_n": 7,
        "move_n": "1",
        "response_time": 1.33,
        "submitted_x": 1,
        "submitted_y": 0,
        "key": 39,
        "move_direction": "right"
    },
    {
        "session_id": "7046e50b60c89",
        "trial_n": 7,
        "move_n": "2",
        "response_time": 0.275,
        "submitted_x": 1,
        "submitted_y": 1,
        "key": 40,
        "move_direction": "down"
    },
    {
        "session_id": "7046e50b60c89",
        "trial_n": 7,
        "move_n": "3",
        "response_time": 0.519,
        "submitted_x": 0,
        "submitted_y": 1,
        "key": 39,
        "move_direction": "left"
    },
    {
        "session_id": "7046e50b60c89",
        "trial_n": 7,
        "move_n": "4",
        "response_time": 0.042,
        "submitted_x": 1,
        "submitted_y": 1,
        "key": 39,
        "move_direction": "right"
    },
    {
        "session_id": "7046e50b60c89",
        "trial_n": 7,
        "move_n": "5",
        "response_time": 0.28,
        "submitted_x": 1,
        "submitted_y": 2,
        "key": 39,
        "move_direction": "down"
    },
    {
        "session_id": "7046e50b60c89",
        "trial_n": 7,
        "move_n": "6",
        "response_time": 0.294,
        "submitted_x": 2,
        "submitted_y": 2,
        "key": 39,
        "move_direction": "right"
    },
    {
        "session_id": "7046e50b60c89",
        "trial_n": 7,
        "move_n": "7",
        "response_time": 0.34,
        "submitted_x": 2,
        "submitted_y": 3,
        "key": 39,
        "move_direction": "down"
    },
    {
        "session_id": "7046e50b60c89",
        "trial_n": 7,
        "move_n": "8",
        "response_time": 0.318,
        "submitted_x": 2,
        "submitted_y": 2,
        "key": 38,
        "move_direction": "up"
    },
    {
        "session_id": "7046e50b60c89",
        "trial_n": 7,
        "move_n": "9",
        "response_time": 0.251,
        "submitted_x": 3,
        "submitted_y": 2,
        "key": 39,
        "move_direction": "right"
    },
    {
        "session_id": "7046e50b60c89",
        "trial_n": 7,
        "move_n": "10",
        "response_time": 0.316,
        "submitted_x": 3,
        "submitted_y": 3,
        "key": 39,
        "move_direction": "down"
    },
    {
        "session_id": "7046e50b60c89",
        "trial_n": 8,
        "move_n": "1",
        "response_time": 0.623,
        "submitted_x": 1,
        "submitted_y": 0,
        "key": 39,
        "move_direction": "right"
    },
    {
        "session_id": "7046e50b60c89",
        "trial_n": 8,
        "move_n": "2",
        "response_time": 0.141,
        "submitted_x": 2,
        "submitted_y": 0,
        "key": 39,
        "move_direction": "right"
    },
    {
        "session_id": "7046e50b60c89",
        "trial_n": 8,
        "move_n": "3",
        "response_time": 0.231,
        "submitted_x": 3,
        "submitted_y": 0,
        "key": 39,
        "move_direction": "right"
    },
    {
        "session_id": "7046e50b60c89",
        "trial_n": 8,
        "move_n": "4",
        "response_time": 0.276,
        "submitted_x": 4,
        "submitted_y": 0,
        "key": 39,
        "move_direction": "right"
    },
    {
        "session_id": "7046e50b60c89",
        "trial_n": 8,
        "move_n": "5",
        "response_time": 0.338,
        "submitted_x": 5,
        "submitted_y": 0,
        "key": 39,
        "move_direction": "right"
    },
    {
        "session_id": "7046e50b60c89",
        "trial_n": 8,
        "move_n": "6",
        "response_time": 0.317,
        "submitted_x": 5,
        "submitted_y": 1,
        "key": 40,
        "move_direction": "down"
    },
    {
        "session_id": "7046e50b60c89",
        "trial_n": 8,
        "move_n": "7",
        "response_time": 0.341,
        "submitted_x": 5,
        "submitted_y": 2,
        "key": 40,
        "move_direction": "down"
    },
    {
        "session_id": "7046e50b60c89",
        "trial_n": 8,
        "move_n": "8",
        "response_time": 0.34,
        "submitted_x": 4,
        "submitted_y": 2,
        "key": 37,
        "move_direction": "left"
    },
    {
        "session_id": "7046e50b60c89",
        "trial_n": 8,
        "move_n": "9",
        "response_time": 0.385,
        "submitted_x": 3,
        "submitted_y": 2,
        "key": 37,
        "move_direction": "left"
    },
    {
        "session_id": "7046e50b60c89",
        "trial_n": 9,
        "move_n": "1",
        "response_time": 1.763,
        "submitted_x": 0,
        "submitted_y": 0,
        "key": 38,
        "move_direction": "up"
    },
    {
        "session_id": "7046e50b60c89",
        "trial_n": 9,
        "move_n": "2",
        "response_time": 0.226,
        "submitted_x": 0,
        "submitted_y": 1,
        "key": 39,
        "move_direction": "down"
    },
    {
        "session_id": "7046e50b60c89",
        "trial_n": 9,
        "move_n": "3",
        "response_time": 0.497,
        "submitted_x": 0,
        "submitted_y": 2,
        "key": 38,
        "move_direction": "down"
    },
    {
        "session_id": "7046e50b60c89",
        "trial_n": 9,
        "move_n": "4",
        "response_time": 0.182,
        "submitted_x": 1,
        "submitted_y": 2,
        "key": 39,
        "move_direction": "right"
    },
    {
        "session_id": "7046e50b60c89",
        "trial_n": 9,
        "move_n": "5",
        "response_time": 0.226,
        "submitted_x": 1,
        "submitted_y": 3,
        "key": 40,
        "move_direction": "down"
    },
    {
        "session_id": "7046e50b60c89",
        "trial_n": 9,
        "move_n": "6",
        "response_time": 0.635,
        "submitted_x": 2,
        "submitted_y": 3,
        "key": 39,
        "move_direction": "right"
    },
    {
        "session_id": "7046e50b60c89",
        "trial_n": 9,
        "move_n": "7",
        "response_time": 0.328,
        "submitted_x": 3,
        "submitted_y": 3,
        "key": 39,
        "move_direction": "right"
    },
    {
        "session_id": "7046e50b60c89",
        "trial_n": 9,
        "move_n": "8",
        "response_time": 0.308,
        "submitted_x": 4,
        "submitted_y": 3,
        "key": 39,
        "move_direction": "right"
    },
    {
        "session_id": "7046e50b60c89",
        "trial_n": 9,
        "move_n": "9",
        "response_time": 0.363,
        "submitted_x": 3,
        "submitted_y": 3,
        "key": 39,
        "move_direction": "left"
    },
    {
        "session_id": "7046e50b60c89",
        "trial_n": 9,
        "move_n": "10",
        "response_time": 0.337,
        "submitted_x": 4,
        "submitted_y": 3,
        "key": 39,
        "move_direction": "right"
    },
    {
        "session_id": "7046e50b60c89",
        "trial_n": 9,
        "move_n": "11",
        "response_time": 0.385,
        "submitted_x": 5,
        "submitted_y": 3,
        "key": 39,
        "move_direction": "right"
    },
    {
        "session_id": "7046e50b60c89",
        "trial_n": 9,
        "move_n": "12",
        "response_time": 0.836,
        "submitted_x": 6,
        "submitted_y": 3,
        "key": 39,
        "move_direction": "right"
    },
    {
        "session_id": "7046e50b60c89",
        "trial_n": 9,
        "move_n": "13",
        "response_time": 0.405,
        "submitted_x": 6,
        "submitted_y": 2,
        "key": 38,
        "move_direction": "up"
    },
    {
        "session_id": "7046e50b60c89",
        "trial_n": 9,
        "move_n": "14",
        "response_time": 0.383,
        "submitted_x": 6,
        "submitted_y": 1,
        "key": 38,
        "move_direction": "up"
    },
    {
        "session_id": "7046e50b60c89",
        "trial_n": 9,
        "move_n": "15",
        "response_time": 0.382,
        "submitted_x": 6,
        "submitted_y": 0,
        "key": 38,
        "move_direction": "up"
    },
    {
        "session_id": "7046e50b60c89",
        "trial_n": 10,
        "move_n": "1",
        "response_time": 1.582,
        "submitted_x": 1,
        "submitted_y": 3,
        "key": 39,
        "move_direction": "right"
    },
    {
        "session_id": "7046e50b60c89",
        "trial_n": 10,
        "move_n": "2",
        "response_time": 0.152,
        "submitted_x": 2,
        "submitted_y": 3,
        "key": 39,
        "move_direction": "right"
    },
    {
        "session_id": "7046e50b60c89",
        "trial_n": 10,
        "move_n": "3",
        "response_time": 0.162,
        "submitted_x": 3,
        "submitted_y": 3,
        "key": 39,
        "move_direction": "right"
    },
    {
        "session_id": "7046e50b60c89",
        "trial_n": 11,
        "move_n": "1",
        "response_time": 1.378,
        "submitted_x": 1,
        "submitted_y": 3,
        "key": 39,
        "move_direction": "right"
    },
    {
        "session_id": "7046e50b60c89",
        "trial_n": 11,
        "move_n": "2",
        "response_time": 0.206,
        "submitted_x": 2,
        "submitted_y": 3,
        "key": 39,
        "move_direction": "right"
    },
    {
        "session_id": "7046e50b60c89",
        "trial_n": 11,
        "move_n": "3",
        "response_time": 0.475,
        "submitted_x": 1,
        "submitted_y": 3,
        "key": 39,
        "move_direction": "left"
    },
    {
        "session_id": "7046e50b60c89",
        "trial_n": 12,
        "move_n": "1",
        "response_time": 1.221,
        "submitted_x": 5,
        "submitted_y": 3,
        "key": 37,
        "move_direction": "left"
    },
    {
        "session_id": "7046e50b60c89",
        "trial_n": 12,
        "move_n": "2",
        "response_time": 0.206,
        "submitted_x": 5,
        "submitted_y": 2,
        "key": 38,
        "move_direction": "up"
    },
    {
        "session_id": "7046e50b60c89",
        "trial_n": 13,
        "move_n": "1",
        "response_time": 0.861,
        "submitted_x": 2,
        "submitted_y": 2,
        "key": 38,
        "move_direction": "up"
    },
    {
        "session_id": "7046e50b60c89",
        "trial_n": 14,
        "move_n": "1",
        "response_time": 0.963,
        "submitted_x": 4,
        "submitted_y": 3,
        "key": 37,
        "move_direction": "left"
    },
    {
        "session_id": "7046e50b60c89",
        "trial_n": 14,
        "move_n": "2",
        "response_time": 0.335,
        "submitted_x": 4,
        "submitted_y": 2,
        "key": 38,
        "move_direction": "up"
    },
    {
        "session_id": "7046e50b60c89",
        "trial_n": 15,
        "move_n": "1",
        "response_time": 0.88,
        "submitted_x": 2,
        "submitted_y": 1,
        "key": 40,
        "move_direction": "down"
    },
    {
        "session_id": "7046e50b60c89",
        "trial_n": 15,
        "move_n": "2",
        "response_time": 0.271,
        "submitted_x": 1,
        "submitted_y": 1,
        "key": 40,
        "move_direction": "left"
    },
    {
        "session_id": "7046e50b60c89",
        "trial_n": 16,
        "move_n": "1",
        "response_time": 0.803,
        "submitted_x": 3,
        "submitted_y": 0,
        "key": 39,
        "move_direction": "right"
    },
    {
        "session_id": "7046e50b60c89",
        "trial_n": 16,
        "move_n": "2",
        "response_time": 0.14,
        "submitted_x": 3,
        "submitted_y": 1,
        "key": 40,
        "move_direction": "down"
    },
    {
        "session_id": "7046e50b60c89",
        "trial_n": 16,
        "move_n": "3",
        "response_time": 0.113,
        "submitted_x": 4,
        "submitted_y": 1,
        "key": 39,
        "move_direction": "right"
    },
    {
        "session_id": "7046e50b60c89",
        "trial_n": 16,
        "move_n": "4",
        "response_time": 0.07,
        "submitted_x": 4,
        "submitted_y": 2,
        "key": 40,
        "move_direction": "down"
    },
    {
        "session_id": "7046e50b60c89",
        "trial_n": 16,
        "move_n": "5",
        "response_time": 0.209,
        "submitted_x": 4,
        "submitted_y": 3,
        "key": 40,
        "move_direction": "down"
    },
    {
        "session_id": "7046e50b60c89",
        "trial_n": 16,
        "move_n": "6",
        "response_time": 0.336,
        "submitted_x": 5,
        "submitted_y": 3,
        "key": 39,
        "move_direction": "right"
    },
    {
        "session_id": "7046e50b60c89",
        "trial_n": 16,
        "move_n": "7",
        "response_time": 0.384,
        "submitted_x": 6,
        "submitted_y": 3,
        "key": 39,
        "move_direction": "right"
    },
    {
        "session_id": "7046e50b60c89",
        "trial_n": 17,
        "move_n": "1",
        "response_time": 0.757,
        "submitted_x": 1,
        "submitted_y": 0,
        "key": 39,
        "move_direction": "right"
    },
    {
        "session_id": "7046e50b60c89",
        "trial_n": 17,
        "move_n": "2",
        "response_time": 0.208,
        "submitted_x": 2,
        "submitted_y": 0,
        "key": 39,
        "move_direction": "right"
    },
    {
        "session_id": "7046e50b60c89",
        "trial_n": 18,
        "move_n": "1",
        "response_time": 0.595,
        "submitted_x": 1,
        "submitted_y": 0,
        "key": 39,
        "move_direction": "right"
    },
    {
        "session_id": "7046e50b60c89",
        "trial_n": 18,
        "move_n": "2",
        "response_time": 0.32,
        "submitted_x": 2,
        "submitted_y": 0,
        "key": 40,
        "move_direction": "right"
    },
    {
        "session_id": "7046e50b60c89",
        "trial_n": 18,
        "move_n": "3",
        "response_time": 0.162,
        "submitted_x": 2,
        "submitted_y": 1,
        "key": 40,
        "move_direction": "down"
    },
    {
        "session_id": "7046e50b60c89",
        "trial_n": 19,
        "move_n": "1",
        "response_time": 0.758,
        "submitted_x": 1,
        "submitted_y": 1,
        "key": 39,
        "move_direction": "right"
    },
    {
        "session_id": "7046e50b60c89",
        "trial_n": 19,
        "move_n": "2",
        "response_time": 0.246,
        "submitted_x": 2,
        "submitted_y": 1,
        "key": 39,
        "move_direction": "right"
    },
    {
        "session_id": "7046e50b60c89",
        "trial_n": 19,
        "move_n": "3",
        "response_time": 0.203,
        "submitted_x": 3,
        "submitted_y": 1,
        "key": 39,
        "move_direction": "right"
    },
    {
        "session_id": "7046e50b60c89",
        "trial_n": 20,
        "move_n": "1",
        "response_time": 0.676,
        "submitted_x": 1,
        "submitted_y": 3,
        "key": 39,
        "move_direction": "right"
    },
    {
        "session_id": "7046e50b60c89",
        "trial_n": 20,
        "move_n": "2",
        "response_time": 0.021,
        "submitted_x": 0,
        "submitted_y": 3,
        "key": 39,
        "move_direction": "left"
    },
    {
        "session_id": "7046e50b60c89",
        "trial_n": 20,
        "move_n": "3",
        "response_time": 2.977,
        "submitted_x": 1,
        "submitted_y": 3,
        "key": 39,
        "move_direction": "right"
    },
    {
        "session_id": "7046e50b60c89",
        "trial_n": 20,
        "move_n": "4",
        "response_time": 0.362,
        "submitted_x": 2,
        "submitted_y": 3,
        "key": 39,
        "move_direction": "right"
    },
    {
        "session_id": "7046e50b60c89",
        "trial_n": 20,
        "move_n": "5",
        "response_time": 0.275,
        "submitted_x": 1,
        "submitted_y": 3,
        "key": 39,
        "move_direction": "left"
    },
    {
        "session_id": "7046e50b60c89",
        "trial_n": 20,
        "move_n": "6",
        "response_time": 0.426,
        "submitted_x": 2,
        "submitted_y": 3,
        "key": 39,
        "move_direction": "right"
    },
    {
        "session_id": "7046e50b60c89",
        "trial_n": 20,
        "move_n": "7",
        "response_time": 0.363,
        "submitted_x": 3,
        "submitted_y": 3,
        "key": 39,
        "move_direction": "right"
    },
    {
        "session_id": "7046e50b60c89",
        "trial_n": 21,
        "move_n": "1",
        "response_time": 0.746,
        "submitted_x": 1,
        "submitted_y": 3,
        "key": 39,
        "move_direction": "right"
    },
    {
        "session_id": "7046e50b60c89",
        "trial_n": 21,
        "move_n": "2",
        "response_time": 0.363,
        "submitted_x": 2,
        "submitted_y": 3,
        "key": 39,
        "move_direction": "right"
    },
    {
        "session_id": "7046e50b60c89",
        "trial_n": 22,
        "move_n": "1",
        "response_time": 0.893,
        "submitted_x": 5,
        "submitted_y": 3,
        "key": 37,
        "move_direction": "left"
    },
    {
        "session_id": "7046e50b60c89",
        "trial_n": 22,
        "move_n": "2",
        "response_time": 0.411,
        "submitted_x": 5,
        "submitted_y": 2,
        "key": 38,
        "move_direction": "up"
    },
    {
        "session_id": "7046e50b60c89",
        "trial_n": 23,
        "move_n": "1",
        "response_time": 0.859,
        "submitted_x": 1,
        "submitted_y": 3,
        "key": 38,
        "move_direction": "left"
    },
    {
        "session_id": "7046e50b60c89",
        "trial_n": 23,
        "move_n": "2",
        "response_time": 0.228,
        "submitted_x": 1,
        "submitted_y": 2,
        "key": 38,
        "move_direction": "up"
    },
    {
        "session_id": "7046e50b60c89",
        "trial_n": 24,
        "move_n": "1",
        "response_time": 0.8,
        "submitted_x": 4,
        "submitted_y": 3,
        "key": 37,
        "move_direction": "left"
    },
    {
        "session_id": "7046e50b60c89",
        "trial_n": 24,
        "move_n": "2",
        "response_time": 0.208,
        "submitted_x": 4,
        "submitted_y": 2,
        "key": 38,
        "move_direction": "up"
    }
]