[{"session_id":"78110f201b3eb","trial_n":1,"move_n":"1","response_time":1.19,"submitted_x":3,"submitted_y":0,"key":39,"move_direction":"right"},{"session_id":"78110f201b3eb","trial_n":1,"move_n":"2","response_time":0.327,"submitted_x":3,"submitted_y":1,"key":40,"move_direction":"down"},{"session_id":"78110f201b3eb","trial_n":1,"move_n":"3","response_time":0.464,"submitted_x":3,"submitted_y":2,"key":40,"move_direction":"down"},{"session_id":"78110f201b3eb","trial_n":1,"move_n":"4","response_time":0.632,"submitted_x":4,"submitted_y":2,"key":39,"move_direction":"right"},{"session_id":"78110f201b3eb","trial_n":1,"move_n":"5","response_time":0.311,"submitted_x":4,"submitted_y":1,"key":40,"move_direction":"up"},{"session_id":"78110f201b3eb","trial_n":1,"move_n":"6","response_time":0.361,"submitted_x":4,"submitted_y":2,"key":40,"move_direction":"down"},{"session_id":"78110f201b3eb","trial_n":1,"move_n":"7","response_time":0.478,"submitted_x":4,"submitted_y":3,"key":40,"move_direction":"down"},{"session_id":"78110f201b3eb","trial_n":2,"move_n":"1","response_time":59.505,"submitted_x":3,"submitted_y":0,"key":39,"move_direction":"right"},{"session_id":"78110f201b3eb","trial_n":2,"move_n":"2","response_time":0.534,"submitted_x":3,"submitted_y":1,"key":40,"move_direction":"down"},{"session_id":"78110f201b3eb","trial_n":2,"move_n":"3","response_time":0.221,"submitted_x":4,"submitted_y":1,"key":39,"move_direction":"right"},{"session_id":"78110f201b3eb","trial_n":2,"move_n":"4","response_time":0.272,"submitted_x":4,"submitted_y":2,"key":40,"move_direction":"down"},{"session_id":"78110f201b3eb","trial_n":2,"move_n":"5","response_time":0.443,"submitted_x":4,"submitted_y":3,"key":40,"move_direction":"down"},{"session_id":"78110f201b3eb","trial_n":3,"move_n":"1","response_time":1.541,"submitted_x":2,"submitted_y":1,"key":40,"move_direction":"down"},{"session_id":"78110f201b3eb","trial_n":4,"move_n":"1","response_time":1.123,"submitted_x":2,"submitted_y":1,"key":40,"move_direction":"down"},{"session_id":"78110f201b3eb","trial_n":5,"move_n":"1","response_time":12.271,"submitted_x":3,"submitted_y":0,"key":39,"move_direction":"right"},{"session_id":"78110f201b3eb","trial_n":5,"move_n":"2","response_time":0.42,"submitted_x":4,"submitted_y":0,"key":39,"move_direction":"right"},{"session_id":"78110f201b3eb","trial_n":5,"move_n":"3","response_time":0.739,"submitted_x":4,"submitted_y":1,"key":40,"move_direction":"down"},{"session_id":"78110f201b3eb","trial_n":5,"move_n":"4","response_time":0.709,"submitted_x":5,"submitted_y":1,"key":39,"move_direction":"right"},{"session_id":"78110f201b3eb","trial_n":6,"move_n":"1","response_time":1.543,"submitted_x":2,"submitted_y":1,"key":40,"move_direction":"down"},{"session_id":"78110f201b3eb","trial_n":6,"move_n":"2","response_time":0.205,"submitted_x":1,"submitted_y":1,"key":37,"move_direction":"left"},{"session_id":"78110f201b3eb","trial_n":7,"move_n":"1","response_time":2.185,"submitted_x":1,"submitted_y":0,"key":39,"move_direction":"right"},{"session_id":"78110f201b3eb","trial_n":7,"move_n":"2","response_time":0.036,"submitted_x":2,"submitted_y":0,"key":39,"move_direction":"right"},{"session_id":"78110f201b3eb","trial_n":7,"move_n":"3","response_time":0.005,"submitted_x":3,"submitted_y":0,"key":39,"move_direction":"right"},{"session_id":"78110f201b3eb","trial_n":7,"move_n":"4","response_time":0.047,"submitted_x":4,"submitted_y":0,"key":39,"move_direction":"right"},{"session_id":"78110f201b3eb","trial_n":7,"move_n":"5","response_time":0.036,"submitted_x":5,"submitted_y":0,"key":40,"move_direction":"right"},{"session_id":"78110f201b3eb","trial_n":7,"move_n":"6","response_time":0.336,"submitted_x":5,"submitted_y":1,"key":40,"move_direction":"down"},{"session_id":"78110f201b3eb","trial_n":7,"move_n":"7","response_time":0.466,"submitted_x":5,"submitted_y":2,"key":40,"move_direction":"down"},{"session_id":"78110f201b3eb","trial_n":7,"move_n":"8","response_time":0.349,"submitted_x":4,"submitted_y":2,"key":37,"move_direction":"left"},{"session_id":"78110f201b3eb","trial_n":7,"move_n":"9","response_time":0.641,"submitted_x":3,"submitted_y":2,"key":37,"move_direction":"left"},{"session_id":"78110f201b3eb","trial_n":8,"move_n":"1","response_time":1.477,"submitted_x":1,"submitted_y":0,"key":39,"move_direction":"right"},{"session_id":"78110f201b3eb","trial_n":8,"move_n":"2","response_time":0.396,"submitted_x":2,"submitted_y":0,"key":39,"move_direction":"right"},{"session_id":"78110f201b3eb","trial_n":8,"move_n":"3","response_time":0.361,"submitted_x":2,"submitted_y":1,"key":40,"move_direction":"down"},{"session_id":"78110f201b3eb","trial_n":9,"move_n":"1","response_time":21.152,"submitted_x":2,"submitted_y":1,"key":40,"move_direction":"down"},{"session_id":"78110f201b3eb","trial_n":9,"move_n":"2","response_time":0.035,"submitted_x":2,"submitted_y":2,"key":40,"move_direction":"down"},{"session_id":"78110f201b3eb","trial_n":9,"move_n":"3","response_time":0.015,"submitted_x":2,"submitted_y":3,"key":40,"move_direction":"down"},{"session_id":"78110f201b3eb","trial_n":10,"move_n":"1","response_time":3.488,"submitted_x":3,"submitted_y":0,"key":39,"move_direction":"right"},{"session_id":"78110f201b3eb","trial_n":10,"move_n":"2","response_time":0.466,"submitted_x":3,"submitted_y":1,"key":40,"move_direction":"down"},{"session_id":"78110f201b3eb","trial_n":10,"move_n":"3","response_time":0.022,"submitted_x":4,"submitted_y":1,"key":39,"move_direction":"right"},{"session_id":"78110f201b3eb","trial_n":10,"move_n":"4","response_time":0.376,"submitted_x":5,"submitted_y":1,"key":39,"move_direction":"right"},{"session_id":"7f93c42d0735a","trial_n":1,"move_n":"1","response_time":47.747,"submitted_x":3,"submitted_y":0,"key":39,"move_direction":"right"},{"session_id":"7c7aef11fad36","trial_n":1,"move_n":"1","response_time":1.852,"submitted_x":3,"submitted_y":0,"key":39,"move_direction":"right"},{"session_id":"7c7aef11fad36","trial_n":1,"move_n":"2","response_time":0.442,"submitted_x":4,"submitted_y":0,"key":40,"move_direction":"right"},{"session_id":"7c7aef11fad36","trial_n":1,"move_n":"3","response_time":0.205,"submitted_x":4,"submitted_y":1,"key":40,"move_direction":"down"},{"session_id":"7c7aef11fad36","trial_n":1,"move_n":"4","response_time":0.419,"submitted_x":4,"submitted_y":2,"key":40,"move_direction":"down"},{"session_id":"7c7aef11fad36","trial_n":1,"move_n":"5","response_time":0.294,"submitted_x":4,"submitted_y":1,"key":40,"move_direction":"up"},{"session_id":"7c7aef11fad36","trial_n":1,"move_n":"6","response_time":0.01,"submitted_x":4,"submitted_y":2,"key":40,"move_direction":"down"},{"session_id":"7c7aef11fad36","trial_n":1,"move_n":"7","response_time":0.3,"submitted_x":4,"submitted_y":3,"key":40,"move_direction":"down"},{"session_id":"7c7aef11fad36","trial_n":2,"move_n":"1","response_time":0.962,"submitted_x":2,"submitted_y":1,"key":39,"move_direction":"down"},{"session_id":"7c7aef11fad36","trial_n":2,"move_n":"2","response_time":0.328,"submitted_x":3,"submitted_y":1,"key":39,"move_direction":"right"},{"session_id":"7c7aef11fad36","trial_n":2,"move_n":"3","response_time":0.353,"submitted_x":4,"submitted_y":1,"key":39,"move_direction":"right"},{"session_id":"7c7aef11fad36","trial_n":2,"move_n":"4","response_time":0.591,"submitted_x":4,"submitted_y":2,"key":40,"move_direction":"down"},{"session_id":"7c7aef11fad36","trial_n":2,"move_n":"5","response_time":0.432,"submitted_x":4,"submitted_y":3,"key":40,"move_direction":"down"}]