[
    {
        "session_id": "64d8995a34008",
        "trial_n": 1,
        "move_n": "1",
        "response_time": 1.893,
        "submitted_x": 3,
        "submitted_y": 0,
        "key": 39,
        "move_direction": "right"
    },
    {
        "session_id": "64d8995a34008",
        "trial_n": 1,
        "move_n": "2",
        "response_time": 0.247,
        "submitted_x": 3,
        "submitted_y": 1,
        "key": 40,
        "move_direction": "down"
    },
    {
        "session_id": "64d8995a34008",
        "trial_n": 1,
        "move_n": "3",
        "response_time": 0.16,
        "submitted_x": 3,
        "submitted_y": 2,
        "key": 40,
        "move_direction": "down"
    },
    {
        "session_id": "64d8995a34008",
        "trial_n": 1,
        "move_n": "4",
        "response_time": 0.303,
        "submitted_x": 3,
        "submitted_y": 3,
        "key": 40,
        "move_direction": "down"
    },
    {
        "session_id": "64d8995a34008",
        "trial_n": 1,
        "move_n": "5",
        "response_time": 0.007,
        "submitted_x": 4,
        "submitted_y": 3,
        "key": 39,
        "move_direction": "right"
    },
    {
        "session_id": "64d8995a34008",
        "trial_n": 2,
        "move_n": "1",
        "response_time": 1.424,
        "submitted_x": 2,
        "submitted_y": 1,
        "key": 40,
        "move_direction": "down"
    },
    {
        "session_id": "64d8995a34008",
        "trial_n": 2,
        "move_n": "2",
        "response_time": 0.921,
        "submitted_x": 2,
        "submitted_y": 2,
        "key": 40,
        "move_direction": "down"
    },
    {
        "session_id": "64d8995a34008",
        "trial_n": 2,
        "move_n": "3",
        "response_time": 0.144,
        "submitted_x": 3,
        "submitted_y": 2,
        "key": 39,
        "move_direction": "right"
    },
    {
        "session_id": "64d8995a34008",
        "trial_n": 2,
        "move_n": "4",
        "response_time": 1.343,
        "submitted_x": 3,
        "submitted_y": 3,
        "key": 40,
        "move_direction": "down"
    },
    {
        "session_id": "64d8995a34008",
        "trial_n": 2,
        "move_n": "5",
        "response_time": 1.329,
        "submitted_x": 4,
        "submitted_y": 3,
        "key": 39,
        "move_direction": "right"
    },
    {
        "session_id": "64d8995a34008",
        "trial_n": 3,
        "move_n": "1",
        "response_time": 0.929,
        "submitted_x": 3,
        "submitted_y": 0,
        "key": 39,
        "move_direction": "right"
    },
    {
        "session_id": "64d8995a34008",
        "trial_n": 3,
        "move_n": "2",
        "response_time": 0.485,
        "submitted_x": 4,
        "submitted_y": 0,
        "key": 39,
        "move_direction": "right"
    },
    {
        "session_id": "64d8995a34008",
        "trial_n": 3,
        "move_n": "3",
        "response_time": 0.021,
        "submitted_x": 4,
        "submitted_y": 1,
        "key": 40,
        "move_direction": "down"
    },
    {
        "session_id": "64d8995a34008",
        "trial_n": 3,
        "move_n": "4",
        "response_time": 0.134,
        "submitted_x": 4,
        "submitted_y": 2,
        "key": 40,
        "move_direction": "down"
    },
    {
        "session_id": "64d8995a34008",
        "trial_n": 3,
        "move_n": "5",
        "response_time": 0.173,
        "submitted_x": 4,
        "submitted_y": 3,
        "key": 40,
        "move_direction": "down"
    },
    {
        "session_id": "64d8995a34008",
        "trial_n": 4,
        "move_n": "1",
        "response_time": 0.982,
        "submitted_x": 3,
        "submitted_y": 0,
        "key": 39,
        "move_direction": "right"
    },
    {
        "session_id": "64d8995a34008",
        "trial_n": 4,
        "move_n": "2",
        "response_time": 0.173,
        "submitted_x": 4,
        "submitted_y": 0,
        "key": 39,
        "move_direction": "right"
    },
    {
        "session_id": "64d8995a34008",
        "trial_n": 4,
        "move_n": "3",
        "response_time": 0.614,
        "submitted_x": 4,
        "submitted_y": 1,
        "key": 40,
        "move_direction": "down"
    },
    {
        "session_id": "64d8995a34008",
        "trial_n": 4,
        "move_n": "4",
        "response_time": 0.099,
        "submitted_x": 4,
        "submitted_y": 2,
        "key": 40,
        "move_direction": "down"
    },
    {
        "session_id": "64d8995a34008",
        "trial_n": 4,
        "move_n": "5",
        "response_time": 0.542,
        "submitted_x": 4,
        "submitted_y": 3,
        "key": 40,
        "move_direction": "down"
    },
    {
        "session_id": "64d8995a34008",
        "trial_n": 5,
        "move_n": "1",
        "response_time": 2.074,
        "submitted_x": 2,
        "submitted_y": 1,
        "key": 40,
        "move_direction": "down"
    },
    {
        "session_id": "64d8995a34008",
        "trial_n": 5,
        "move_n": "2",
        "response_time": 1.035,
        "submitted_x": 2,
        "submitted_y": 2,
        "key": 40,
        "move_direction": "down"
    },
    {
        "session_id": "64d8995a34008",
        "trial_n": 5,
        "move_n": "3",
        "response_time": 0.481,
        "submitted_x": 2,
        "submitted_y": 1,
        "key": 40,
        "move_direction": "up"
    },
    {
        "session_id": "64d8995a34008",
        "trial_n": 5,
        "move_n": "4",
        "response_time": 0.469,
        "submitted_x": 2,
        "submitted_y": 0,
        "key": 40,
        "move_direction": "up"
    },
    {
        "session_id": "64d8995a34008",
        "trial_n": 5,
        "move_n": "5",
        "response_time": 3.205,
        "submitted_x": 2,
        "submitted_y": 1,
        "key": 40,
        "move_direction": "down"
    },
    {
        "session_id": "64d8995a34008",
        "trial_n": 5,
        "move_n": "6",
        "response_time": 0.394,
        "submitted_x": 2,
        "submitted_y": 2,
        "key": 40,
        "move_direction": "down"
    },
    {
        "session_id": "64d8995a34008",
        "trial_n": 5,
        "move_n": "7",
        "response_time": 0.77,
        "submitted_x": 2,
        "submitted_y": 3,
        "key": 40,
        "move_direction": "down"
    },
    {
        "session_id": "64d8995a34008",
        "trial_n": 5,
        "move_n": "8",
        "response_time": 1.013,
        "submitted_x": 1,
        "submitted_y": 3,
        "key": 37,
        "move_direction": "left"
    },
    {
        "session_id": "64d8995a34008",
        "trial_n": 6,
        "move_n": "1",
        "response_time": 3.603,
        "submitted_x": 3,
        "submitted_y": 0,
        "key": 39,
        "move_direction": "right"
    },
    {
        "session_id": "64d8995a34008",
        "trial_n": 6,
        "move_n": "2",
        "response_time": 0.489,
        "submitted_x": 2,
        "submitted_y": 0,
        "key": 40,
        "move_direction": "left"
    },
    {
        "session_id": "64d8995a34008",
        "trial_n": 6,
        "move_n": "3",
        "response_time": 0.437,
        "submitted_x": 3,
        "submitted_y": 0,
        "key": 39,
        "move_direction": "right"
    },
    {
        "session_id": "64d8995a34008",
        "trial_n": 6,
        "move_n": "4",
        "response_time": 0.457,
        "submitted_x": 3,
        "submitted_y": 1,
        "key": 40,
        "move_direction": "down"
    },
    {
        "session_id": "64d8995a34008",
        "trial_n": 6,
        "move_n": "5",
        "response_time": 0.482,
        "submitted_x": 3,
        "submitted_y": 2,
        "key": 40,
        "move_direction": "down"
    },
    {
        "session_id": "64d8995a34008",
        "trial_n": 6,
        "move_n": "6",
        "response_time": 0.355,
        "submitted_x": 4,
        "submitted_y": 2,
        "key": 39,
        "move_direction": "right"
    },
    {
        "session_id": "64d8995a34008",
        "trial_n": 6,
        "move_n": "7",
        "response_time": 0.339,
        "submitted_x": 4,
        "submitted_y": 3,
        "key": 40,
        "move_direction": "down"
    },
    {
        "session_id": "64d8995a34008",
        "trial_n": 6,
        "move_n": "8",
        "response_time": 0.345,
        "submitted_x": 5,
        "submitted_y": 3,
        "key": 39,
        "move_direction": "right"
    },
    {
        "session_id": "64d8995a34008",
        "trial_n": 6,
        "move_n": "9",
        "response_time": 0.369,
        "submitted_x": 4,
        "submitted_y": 3,
        "key": 39,
        "move_direction": "left"
    },
    {
        "session_id": "64d8995a34008",
        "trial_n": 6,
        "move_n": "10",
        "response_time": 0.429,
        "submitted_x": 5,
        "submitted_y": 3,
        "key": 39,
        "move_direction": "right"
    },
    {
        "session_id": "64d8995a34008",
        "trial_n": 6,
        "move_n": "11",
        "response_time": 0.446,
        "submitted_x": 6,
        "submitted_y": 3,
        "key": 39,
        "move_direction": "right"
    },
    {
        "session_id": "64d8995a34008",
        "trial_n": 7,
        "move_n": "1",
        "response_time": 2.801,
        "submitted_x": 0,
        "submitted_y": 1,
        "key": 40,
        "move_direction": "down"
    },
    {
        "session_id": "64d8995a34008",
        "trial_n": 7,
        "move_n": "2",
        "response_time": 0.195,
        "submitted_x": 0,
        "submitted_y": 0,
        "key": 39,
        "move_direction": "up"
    },
    {
        "session_id": "64d8995a34008",
        "trial_n": 7,
        "move_n": "3",
        "response_time": 0.393,
        "submitted_x": 0,
        "submitted_y": 1,
        "key": 40,
        "move_direction": "down"
    },
    {
        "session_id": "64d8995a34008",
        "trial_n": 7,
        "move_n": "4",
        "response_time": 0.379,
        "submitted_x": 1,
        "submitted_y": 1,
        "key": 39,
        "move_direction": "right"
    },
    {
        "session_id": "64d8995a34008",
        "trial_n": 7,
        "move_n": "5",
        "response_time": 1.01,
        "submitted_x": 1,
        "submitted_y": 2,
        "key": 40,
        "move_direction": "down"
    },
    {
        "session_id": "64d8995a34008",
        "trial_n": 7,
        "move_n": "6",
        "response_time": 0.361,
        "submitted_x": 2,
        "submitted_y": 2,
        "key": 39,
        "move_direction": "right"
    },
    {
        "session_id": "64d8995a34008",
        "trial_n": 7,
        "move_n": "7",
        "response_time": 0.287,
        "submitted_x": 3,
        "submitted_y": 2,
        "key": 39,
        "move_direction": "right"
    },
    {
        "session_id": "64d8995a34008",
        "trial_n": 7,
        "move_n": "8",
        "response_time": 0.316,
        "submitted_x": 4,
        "submitted_y": 2,
        "key": 39,
        "move_direction": "right"
    },
    {
        "session_id": "64d8995a34008",
        "trial_n": 7,
        "move_n": "9",
        "response_time": 0.358,
        "submitted_x": 5,
        "submitted_y": 2,
        "key": 39,
        "move_direction": "right"
    },
    {
        "session_id": "64d8995a34008",
        "trial_n": 7,
        "move_n": "10",
        "response_time": 0.304,
        "submitted_x": 5,
        "submitted_y": 3,
        "key": 40,
        "move_direction": "down"
    },
    {
        "session_id": "64d8995a34008",
        "trial_n": 8,
        "move_n": "1",
        "response_time": 12.117,
        "submitted_x": 1,
        "submitted_y": 0,
        "key": 39,
        "move_direction": "right"
    },
    {
        "session_id": "64d8995a34008",
        "trial_n": 8,
        "move_n": "2",
        "response_time": 0.936,
        "submitted_x": 2,
        "submitted_y": 0,
        "key": 39,
        "move_direction": "right"
    },
    {
        "session_id": "64d8995a34008",
        "trial_n": 8,
        "move_n": "3",
        "response_time": 0.883,
        "submitted_x": 3,
        "submitted_y": 0,
        "key": 39,
        "move_direction": "right"
    },
    {
        "session_id": "64d8995a34008",
        "trial_n": 8,
        "move_n": "4",
        "response_time": 0.275,
        "submitted_x": 4,
        "submitted_y": 0,
        "key": 39,
        "move_direction": "right"
    },
    {
        "session_id": "64d8995a34008",
        "trial_n": 8,
        "move_n": "5",
        "response_time": 0.009,
        "submitted_x": 4,
        "submitted_y": 1,
        "key": 40,
        "move_direction": "down"
    },
    {
        "session_id": "64d8995a34008",
        "trial_n": 8,
        "move_n": "6",
        "response_time": 0.301,
        "submitted_x": 4,
        "submitted_y": 2,
        "key": 40,
        "move_direction": "down"
    },
    {
        "session_id": "64d8995a34008",
        "trial_n": 8,
        "move_n": "7",
        "response_time": 34.494,
        "submitted_x": 3,
        "submitted_y": 2,
        "key": 37,
        "move_direction": "left"
    },
    {
        "session_id": "64d8995a34008",
        "trial_n": 9,
        "move_n": "1",
        "response_time": 2.479,
        "submitted_x": 0,
        "submitted_y": 2,
        "key": 40,
        "move_direction": "down"
    },
    {
        "session_id": "64d8995a34008",
        "trial_n": 9,
        "move_n": "2",
        "response_time": 0.379,
        "submitted_x": 0,
        "submitted_y": 3,
        "key": 40,
        "move_direction": "down"
    },
    {
        "session_id": "64d8995a34008",
        "trial_n": 9,
        "move_n": "3",
        "response_time": 0.169,
        "submitted_x": 1,
        "submitted_y": 3,
        "key": 39,
        "move_direction": "right"
    },
    {
        "session_id": "64d8995a34008",
        "trial_n": 9,
        "move_n": "4",
        "response_time": 0.318,
        "submitted_x": 0,
        "submitted_y": 3,
        "key": 39,
        "move_direction": "left"
    },
    {
        "session_id": "64d8995a34008",
        "trial_n": 9,
        "move_n": "5",
        "response_time": 0.318,
        "submitted_x": 1,
        "submitted_y": 3,
        "key": 39,
        "move_direction": "right"
    },
    {
        "session_id": "64d8995a34008",
        "trial_n": 9,
        "move_n": "6",
        "response_time": 0.038,
        "submitted_x": 2,
        "submitted_y": 3,
        "key": 39,
        "move_direction": "right"
    },
    {
        "session_id": "64d8995a34008",
        "trial_n": 9,
        "move_n": "7",
        "response_time": 0.272,
        "submitted_x": 3,
        "submitted_y": 3,
        "key": 39,
        "move_direction": "right"
    },
    {
        "session_id": "64d8995a34008",
        "trial_n": 9,
        "move_n": "8",
        "response_time": 0.301,
        "submitted_x": 3,
        "submitted_y": 2,
        "key": 39,
        "move_direction": "up"
    },
    {
        "session_id": "64d8995a34008",
        "trial_n": 10,
        "move_n": "1",
        "response_time": 0.968,
        "submitted_x": 0,
        "submitted_y": 2,
        "key": 38,
        "move_direction": "up"
    },
    {
        "session_id": "64d8995a34008",
        "trial_n": 10,
        "move_n": "2",
        "response_time": 0.071,
        "submitted_x": 0,
        "submitted_y": 1,
        "key": 38,
        "move_direction": "up"
    },
    {
        "session_id": "64d8995a34008",
        "trial_n": 10,
        "move_n": "3",
        "response_time": 0.226,
        "submitted_x": 1,
        "submitted_y": 1,
        "key": 39,
        "move_direction": "right"
    },
    {
        "session_id": "64d8995a34008",
        "trial_n": 10,
        "move_n": "4",
        "response_time": 0.043,
        "submitted_x": 1,
        "submitted_y": 2,
        "key": 39,
        "move_direction": "down"
    },
    {
        "session_id": "64d8995a34008",
        "trial_n": 10,
        "move_n": "5",
        "response_time": 0.428,
        "submitted_x": 1,
        "submitted_y": 1,
        "key": 38,
        "move_direction": "up"
    },
    {
        "session_id": "64d8995a34008",
        "trial_n": 10,
        "move_n": "6",
        "response_time": 0.101,
        "submitted_x": 2,
        "submitted_y": 1,
        "key": 39,
        "move_direction": "right"
    },
    {
        "session_id": "64d8995a34008",
        "trial_n": 10,
        "move_n": "7",
        "response_time": 0.065,
        "submitted_x": 2,
        "submitted_y": 0,
        "key": 38,
        "move_direction": "up"
    },
    {
        "session_id": "64d8995a34008",
        "trial_n": 10,
        "move_n": "8",
        "response_time": 0.221,
        "submitted_x": 3,
        "submitted_y": 0,
        "key": 39,
        "move_direction": "right"
    },
    {
        "session_id": "64d8995a34008",
        "trial_n": 10,
        "move_n": "9",
        "response_time": 0.291,
        "submitted_x": 4,
        "submitted_y": 0,
        "key": 39,
        "move_direction": "right"
    },
    {
        "session_id": "64d8995a34008",
        "trial_n": 10,
        "move_n": "10",
        "response_time": 0.118,
        "submitted_x": 5,
        "submitted_y": 0,
        "key": 39,
        "move_direction": "right"
    },
    {
        "session_id": "64d8995a34008",
        "trial_n": 10,
        "move_n": "11",
        "response_time": 0.4,
        "submitted_x": 5,
        "submitted_y": 1,
        "key": 40,
        "move_direction": "down"
    },
    {
        "session_id": "64d8995a34008",
        "trial_n": 10,
        "move_n": "12",
        "response_time": 0.118,
        "submitted_x": 6,
        "submitted_y": 1,
        "key": 39,
        "move_direction": "right"
    },
    {
        "session_id": "64d8995a34008",
        "trial_n": 10,
        "move_n": "13",
        "response_time": 0.275,
        "submitted_x": 5,
        "submitted_y": 1,
        "key": 40,
        "move_direction": "left"
    },
    {
        "session_id": "64d8995a34008",
        "trial_n": 10,
        "move_n": "14",
        "response_time": 0.422,
        "submitted_x": 6,
        "submitted_y": 1,
        "key": 39,
        "move_direction": "right"
    },
    {
        "session_id": "64d8995a34008",
        "trial_n": 10,
        "move_n": "15",
        "response_time": 0.312,
        "submitted_x": 5,
        "submitted_y": 1,
        "key": 40,
        "move_direction": "left"
    },
    {
        "session_id": "64d8995a34008",
        "trial_n": 10,
        "move_n": "16",
        "response_time": 0.496,
        "submitted_x": 6,
        "submitted_y": 1,
        "key": 39,
        "move_direction": "right"
    },
    {
        "session_id": "64d8995a34008",
        "trial_n": 10,
        "move_n": "17",
        "response_time": 0.187,
        "submitted_x": 6,
        "submitted_y": 2,
        "key": 40,
        "move_direction": "down"
    },
    {
        "session_id": "64d8995a34008",
        "trial_n": 10,
        "move_n": "18",
        "response_time": 0.259,
        "submitted_x": 6,
        "submitted_y": 3,
        "key": 40,
        "move_direction": "down"
    },
    {
        "session_id": "64d8995a34008",
        "trial_n": 11,
        "move_n": "1",
        "response_time": 1.58,
        "submitted_x": 1,
        "submitted_y": 3,
        "key": 40,
        "move_direction": "right"
    },
    {
        "session_id": "64d8995a34008",
        "trial_n": 11,
        "move_n": "2",
        "response_time": 0.402,
        "submitted_x": 0,
        "submitted_y": 3,
        "key": 38,
        "move_direction": "left"
    },
    {
        "session_id": "64d8995a34008",
        "trial_n": 11,
        "move_n": "3",
        "response_time": 0.454,
        "submitted_x": 0,
        "submitted_y": 2,
        "key": 38,
        "move_direction": "up"
    },
    {
        "session_id": "64d8995a34008",
        "trial_n": 11,
        "move_n": "4",
        "response_time": 0.383,
        "submitted_x": 0,
        "submitted_y": 3,
        "key": 38,
        "move_direction": "down"
    },
    {
        "session_id": "64d8995a34008",
        "trial_n": 11,
        "move_n": "5",
        "response_time": 0.374,
        "submitted_x": 0,
        "submitted_y": 2,
        "key": 38,
        "move_direction": "up"
    },
    {
        "session_id": "64d8995a34008",
        "trial_n": 11,
        "move_n": "6",
        "response_time": 0.826,
        "submitted_x": 0,
        "submitted_y": 1,
        "key": 38,
        "move_direction": "up"
    },
    {
        "session_id": "64d8995a34008",
        "trial_n": 11,
        "move_n": "7",
        "response_time": 0.595,
        "submitted_x": 1,
        "submitted_y": 1,
        "key": 39,
        "move_direction": "right"
    },
    {
        "session_id": "64d8995a34008",
        "trial_n": 11,
        "move_n": "8",
        "response_time": 0.257,
        "submitted_x": 2,
        "submitted_y": 1,
        "key": 39,
        "move_direction": "right"
    },
    {
        "session_id": "64d8995a34008",
        "trial_n": 11,
        "move_n": "9",
        "response_time": 0.278,
        "submitted_x": 3,
        "submitted_y": 1,
        "key": 39,
        "move_direction": "right"
    },
    {
        "session_id": "64d8995a34008",
        "trial_n": 11,
        "move_n": "10",
        "response_time": 0.247,
        "submitted_x": 4,
        "submitted_y": 1,
        "key": 39,
        "move_direction": "right"
    },
    {
        "session_id": "64d8995a34008",
        "trial_n": 11,
        "move_n": "11",
        "response_time": 0.271,
        "submitted_x": 5,
        "submitted_y": 1,
        "key": 39,
        "move_direction": "right"
    },
    {
        "session_id": "64d8995a34008",
        "trial_n": 11,
        "move_n": "12",
        "response_time": 0.746,
        "submitted_x": 6,
        "submitted_y": 1,
        "key": 39,
        "move_direction": "right"
    },
    {
        "session_id": "64d8995a34008",
        "trial_n": 11,
        "move_n": "13",
        "response_time": 0.064,
        "submitted_x": 6,
        "submitted_y": 2,
        "key": 40,
        "move_direction": "down"
    },
    {
        "session_id": "64d8995a34008",
        "trial_n": 11,
        "move_n": "14",
        "response_time": 0.204,
        "submitted_x": 6,
        "submitted_y": 3,
        "key": 40,
        "move_direction": "down"
    },
    {
        "session_id": "64d8995a34008",
        "trial_n": 12,
        "move_n": "1",
        "response_time": 1.514,
        "submitted_x": 5,
        "submitted_y": 3,
        "key": 37,
        "move_direction": "left"
    },
    {
        "session_id": "64d8995a34008",
        "trial_n": 12,
        "move_n": "2",
        "response_time": 0.035,
        "submitted_x": 4,
        "submitted_y": 3,
        "key": 37,
        "move_direction": "left"
    },
    {
        "session_id": "64d8995a34008",
        "trial_n": 12,
        "move_n": "3",
        "response_time": 0.068,
        "submitted_x": 3,
        "submitted_y": 3,
        "key": 37,
        "move_direction": "left"
    },
    {
        "session_id": "64d8995a34008",
        "trial_n": 12,
        "move_n": "4",
        "response_time": 42.696,
        "submitted_x": 4,
        "submitted_y": 3,
        "key": 38,
        "move_direction": "right"
    },
    {
        "session_id": "64d8995a34008",
        "trial_n": 12,
        "move_n": "5",
        "response_time": 0.161,
        "submitted_x": 4,
        "submitted_y": 2,
        "key": 38,
        "move_direction": "up"
    },
    {
        "session_id": "64d8995a34008",
        "trial_n": 12,
        "move_n": "6",
        "response_time": 0.147,
        "submitted_x": 4,
        "submitted_y": 1,
        "key": 38,
        "move_direction": "up"
    },
    {
        "session_id": "64d8995a34008",
        "trial_n": 12,
        "move_n": "7",
        "response_time": 0.146,
        "submitted_x": 4,
        "submitted_y": 0,
        "key": 38,
        "move_direction": "up"
    },
    {
        "session_id": "64d8995a34008",
        "trial_n": 12,
        "move_n": "8",
        "response_time": 0.728,
        "submitted_x": 5,
        "submitted_y": 0,
        "key": 39,
        "move_direction": "right"
    },
    {
        "session_id": "64d8995a34008",
        "trial_n": 13,
        "move_n": "1",
        "response_time": 1.104,
        "submitted_x": 2,
        "submitted_y": 2,
        "key": 39,
        "move_direction": "up"
    },
    {
        "session_id": "64d8995a34008",
        "trial_n": 14,
        "move_n": "1",
        "response_time": 1.115,
        "submitted_x": 4,
        "submitted_y": 3,
        "key": 37,
        "move_direction": "left"
    },
    {
        "session_id": "64d8995a34008",
        "trial_n": 14,
        "move_n": "2",
        "response_time": 0.031,
        "submitted_x": 3,
        "submitted_y": 3,
        "key": 37,
        "move_direction": "left"
    },
    {
        "session_id": "64d8995a34008",
        "trial_n": 14,
        "move_n": "3",
        "response_time": 0.352,
        "submitted_x": 2,
        "submitted_y": 3,
        "key": 37,
        "move_direction": "left"
    },
    {
        "session_id": "64d8995a34008",
        "trial_n": 14,
        "move_n": "4",
        "response_time": 0.125,
        "submitted_x": 1,
        "submitted_y": 3,
        "key": 37,
        "move_direction": "left"
    },
    {
        "session_id": "64d8995a34008",
        "trial_n": 14,
        "move_n": "5",
        "response_time": 2.826,
        "submitted_x": 1,
        "submitted_y": 2,
        "key": 38,
        "move_direction": "up"
    },
    {
        "session_id": "64d8995a34008",
        "trial_n": 14,
        "move_n": "6",
        "response_time": 0.281,
        "submitted_x": 1,
        "submitted_y": 3,
        "key": 38,
        "move_direction": "down"
    },
    {
        "session_id": "64d8995a34008",
        "trial_n": 14,
        "move_n": "7",
        "response_time": 0.41,
        "submitted_x": 1,
        "submitted_y": 2,
        "key": 38,
        "move_direction": "up"
    },
    {
        "session_id": "64d8995a34008",
        "trial_n": 14,
        "move_n": "8",
        "response_time": 0.246,
        "submitted_x": 1,
        "submitted_y": 1,
        "key": 38,
        "move_direction": "up"
    },
    {
        "session_id": "64d8995a34008",
        "trial_n": 14,
        "move_n": "9",
        "response_time": 0.368,
        "submitted_x": 2,
        "submitted_y": 1,
        "key": 39,
        "move_direction": "right"
    },
    {
        "session_id": "64d8995a34008",
        "trial_n": 14,
        "move_n": "10",
        "response_time": 0.183,
        "submitted_x": 1,
        "submitted_y": 1,
        "key": 37,
        "move_direction": "left"
    },
    {
        "session_id": "64d8995a34008",
        "trial_n": 14,
        "move_n": "11",
        "response_time": 0.438,
        "submitted_x": 2,
        "submitted_y": 1,
        "key": 39,
        "move_direction": "right"
    },
    {
        "session_id": "64d8995a34008",
        "trial_n": 14,
        "move_n": "12",
        "response_time": 0.395,
        "submitted_x": 2,
        "submitted_y": 0,
        "key": 38,
        "move_direction": "up"
    },
    {
        "session_id": "64d8995a34008",
        "trial_n": 14,
        "move_n": "13",
        "response_time": 0.914,
        "submitted_x": 2,
        "submitted_y": 1,
        "key": 39,
        "move_direction": "down"
    },
    {
        "session_id": "64d8995a34008",
        "trial_n": 14,
        "move_n": "14",
        "response_time": 0.447,
        "submitted_x": 2,
        "submitted_y": 0,
        "key": 38,
        "move_direction": "up"
    },
    {
        "session_id": "64d8995a34008",
        "trial_n": 14,
        "move_n": "15",
        "response_time": 0.36,
        "submitted_x": 3,
        "submitted_y": 0,
        "key": 39,
        "move_direction": "right"
    },
    {
        "session_id": "64d8995a34008",
        "trial_n": 15,
        "move_n": "1",
        "response_time": 2.088,
        "submitted_x": 2,
        "submitted_y": 1,
        "key": 40,
        "move_direction": "down"
    },
    {
        "session_id": "64d8995a34008",
        "trial_n": 15,
        "move_n": "2",
        "response_time": 55.107,
        "submitted_x": 2,
        "submitted_y": 2,
        "key": 40,
        "move_direction": "down"
    },
    {
        "session_id": "64d8995a34008",
        "trial_n": 15,
        "move_n": "3",
        "response_time": 0.346,
        "submitted_x": 2,
        "submitted_y": 3,
        "key": 40,
        "move_direction": "down"
    },
    {
        "session_id": "64d8995a34008",
        "trial_n": 15,
        "move_n": "4",
        "response_time": 0.2,
        "submitted_x": 1,
        "submitted_y": 3,
        "key": 37,
        "move_direction": "left"
    },
    {
        "session_id": "64d8995a34008",
        "trial_n": 16,
        "move_n": "1",
        "response_time": 2.361,
        "submitted_x": 3,
        "submitted_y": 0,
        "key": 39,
        "move_direction": "right"
    },
    {
        "session_id": "64d8995a34008",
        "trial_n": 16,
        "move_n": "2",
        "response_time": 0.154,
        "submitted_x": 3,
        "submitted_y": 1,
        "key": 40,
        "move_direction": "down"
    },
    {
        "session_id": "64d8995a34008",
        "trial_n": 16,
        "move_n": "3",
        "response_time": 0.124,
        "submitted_x": 3,
        "submitted_y": 2,
        "key": 40,
        "move_direction": "down"
    },
    {
        "session_id": "64d8995a34008",
        "trial_n": 16,
        "move_n": "4",
        "response_time": 0.044,
        "submitted_x": 4,
        "submitted_y": 2,
        "key": 39,
        "move_direction": "right"
    },
    {
        "session_id": "64d8995a34008",
        "trial_n": 16,
        "move_n": "5",
        "response_time": 0.024,
        "submitted_x": 4,
        "submitted_y": 3,
        "key": 40,
        "move_direction": "down"
    },
    {
        "session_id": "64d8995a34008",
        "trial_n": 16,
        "move_n": "6",
        "response_time": 0.096,
        "submitted_x": 5,
        "submitted_y": 3,
        "key": 39,
        "move_direction": "right"
    },
    {
        "session_id": "64d8995a34008",
        "trial_n": 16,
        "move_n": "7",
        "response_time": 0.298,
        "submitted_x": 6,
        "submitted_y": 3,
        "key": 39,
        "move_direction": "right"
    },
    {
        "session_id": "64d8995a34008",
        "trial_n": 17,
        "move_n": "1",
        "response_time": 1.494,
        "submitted_x": 0,
        "submitted_y": 1,
        "key": 40,
        "move_direction": "down"
    },
    {
        "session_id": "64d8995a34008",
        "trial_n": 17,
        "move_n": "2",
        "response_time": 0.425,
        "submitted_x": 0,
        "submitted_y": 2,
        "key": 40,
        "move_direction": "down"
    },
    {
        "session_id": "64d8995a34008",
        "trial_n": 17,
        "move_n": "3",
        "response_time": 0.187,
        "submitted_x": 1,
        "submitted_y": 2,
        "key": 39,
        "move_direction": "right"
    },
    {
        "session_id": "64d8995a34008",
        "trial_n": 17,
        "move_n": "4",
        "response_time": 0.074,
        "submitted_x": 2,
        "submitted_y": 2,
        "key": 39,
        "move_direction": "right"
    },
    {
        "session_id": "64d8995a34008",
        "trial_n": 17,
        "move_n": "5",
        "response_time": 0.255,
        "submitted_x": 1,
        "submitted_y": 2,
        "key": 39,
        "move_direction": "left"
    },
    {
        "session_id": "64d8995a34008",
        "trial_n": 17,
        "move_n": "6",
        "response_time": 0.223,
        "submitted_x": 2,
        "submitted_y": 2,
        "key": 39,
        "move_direction": "right"
    },
    {
        "session_id": "64d8995a34008",
        "trial_n": 17,
        "move_n": "7",
        "response_time": 0.051,
        "submitted_x": 1,
        "submitted_y": 2,
        "key": 39,
        "move_direction": "left"
    },
    {
        "session_id": "64d8995a34008",
        "trial_n": 17,
        "move_n": "8",
        "response_time": 0.261,
        "submitted_x": 2,
        "submitted_y": 2,
        "key": 39,
        "move_direction": "right"
    },
    {
        "session_id": "64d8995a34008",
        "trial_n": 17,
        "move_n": "9",
        "response_time": 0.341,
        "submitted_x": 3,
        "submitted_y": 2,
        "key": 39,
        "move_direction": "right"
    },
    {
        "session_id": "64d8995a34008",
        "trial_n": 17,
        "move_n": "10",
        "response_time": 0.212,
        "submitted_x": 4,
        "submitted_y": 2,
        "key": 39,
        "move_direction": "right"
    },
    {
        "session_id": "64d8995a34008",
        "trial_n": 17,
        "move_n": "11",
        "response_time": 0.419,
        "submitted_x": 4,
        "submitted_y": 3,
        "key": 39,
        "move_direction": "down"
    },
    {
        "session_id": "64d8995a34008",
        "trial_n": 18,
        "move_n": "1",
        "response_time": 2.028,
        "submitted_x": 1,
        "submitted_y": 0,
        "key": 39,
        "move_direction": "right"
    },
    {
        "session_id": "64d8995a34008",
        "trial_n": 18,
        "move_n": "2",
        "response_time": 0.165,
        "submitted_x": 2,
        "submitted_y": 0,
        "key": 39,
        "move_direction": "right"
    },
    {
        "session_id": "64d8995a34008",
        "trial_n": 18,
        "move_n": "3",
        "response_time": 0.511,
        "submitted_x": 3,
        "submitted_y": 0,
        "key": 39,
        "move_direction": "right"
    },
    {
        "session_id": "719b83ebf40f8",
        "trial_n": 1,
        "move_n": "1",
        "response_time": 111.332,
        "submitted_x": 3,
        "submitted_y": 0,
        "key": 39,
        "move_direction": "right"
    },
    {
        "session_id": "719b83ebf40f8",
        "trial_n": 1,
        "move_n": "2",
        "response_time": 0.08,
        "submitted_x": 2,
        "submitted_y": 0,
        "key": 40,
        "move_direction": "left"
    },
    {
        "session_id": "719b83ebf40f8",
        "trial_n": 1,
        "move_n": "3",
        "response_time": 0.387,
        "submitted_x": 2,
        "submitted_y": 1,
        "key": 40,
        "move_direction": "down"
    },
    {
        "session_id": "719b83ebf40f8",
        "trial_n": 1,
        "move_n": "4",
        "response_time": 0.029,
        "submitted_x": 2,
        "submitted_y": 0,
        "key": 40,
        "move_direction": "up"
    },
    {
        "session_id": "719b83ebf40f8",
        "trial_n": 1,
        "move_n": "5",
        "response_time": 0.343,
        "submitted_x": 2,
        "submitted_y": 1,
        "key": 40,
        "move_direction": "down"
    },
    {
        "session_id": "719b83ebf40f8",
        "trial_n": 1,
        "move_n": "6",
        "response_time": 0.435,
        "submitted_x": 2,
        "submitted_y": 2,
        "key": 40,
        "move_direction": "down"
    },
    {
        "session_id": "719b83ebf40f8",
        "trial_n": 1,
        "move_n": "7",
        "response_time": 0.256,
        "submitted_x": 2,
        "submitted_y": 1,
        "key": 39,
        "move_direction": "up"
    },
    {
        "session_id": "719b83ebf40f8",
        "trial_n": 1,
        "move_n": "8",
        "response_time": 0.453,
        "submitted_x": 3,
        "submitted_y": 1,
        "key": 39,
        "move_direction": "right"
    },
    {
        "session_id": "719b83ebf40f8",
        "trial_n": 1,
        "move_n": "9",
        "response_time": 0.324,
        "submitted_x": 3,
        "submitted_y": 2,
        "key": 40,
        "move_direction": "down"
    },
    {
        "session_id": "719b83ebf40f8",
        "trial_n": 1,
        "move_n": "10",
        "response_time": 0.366,
        "submitted_x": 2,
        "submitted_y": 2,
        "key": 39,
        "move_direction": "left"
    },
    {
        "session_id": "719b83ebf40f8",
        "trial_n": 1,
        "move_n": "11",
        "response_time": 0.119,
        "submitted_x": 3,
        "submitted_y": 2,
        "key": 39,
        "move_direction": "right"
    },
    {
        "session_id": "719b83ebf40f8",
        "trial_n": 1,
        "move_n": "12",
        "response_time": 0.231,
        "submitted_x": 3,
        "submitted_y": 3,
        "key": 39,
        "move_direction": "down"
    },
    {
        "session_id": "719b83ebf40f8",
        "trial_n": 1,
        "move_n": "13",
        "response_time": 0.297,
        "submitted_x": 4,
        "submitted_y": 3,
        "key": 39,
        "move_direction": "right"
    },
    {
        "session_id": "719b83ebf40f8",
        "trial_n": 2,
        "move_n": "1",
        "response_time": 1.393,
        "submitted_x": 2,
        "submitted_y": 1,
        "key": 40,
        "move_direction": "down"
    },
    {
        "session_id": "719b83ebf40f8",
        "trial_n": 2,
        "move_n": "2",
        "response_time": 0.322,
        "submitted_x": 2,
        "submitted_y": 2,
        "key": 40,
        "move_direction": "down"
    },
    {
        "session_id": "719b83ebf40f8",
        "trial_n": 2,
        "move_n": "3",
        "response_time": 0.14,
        "submitted_x": 3,
        "submitted_y": 2,
        "key": 39,
        "move_direction": "right"
    },
    {
        "session_id": "719b83ebf40f8",
        "trial_n": 2,
        "move_n": "4",
        "response_time": 0.232,
        "submitted_x": 4,
        "submitted_y": 2,
        "key": 39,
        "move_direction": "right"
    },
    {
        "session_id": "719b83ebf40f8",
        "trial_n": 2,
        "move_n": "5",
        "response_time": 0.254,
        "submitted_x": 4,
        "submitted_y": 3,
        "key": 40,
        "move_direction": "down"
    },
    {
        "session_id": "719b83ebf40f8",
        "trial_n": 3,
        "move_n": "1",
        "response_time": 0.913,
        "submitted_x": 2,
        "submitted_y": 1,
        "key": 40,
        "move_direction": "down"
    },
    {
        "session_id": "719b83ebf40f8",
        "trial_n": 4,
        "move_n": "1",
        "response_time": 0.802,
        "submitted_x": 2,
        "submitted_y": 1,
        "key": 40,
        "move_direction": "down"
    },
    {
        "session_id": "719b83ebf40f8",
        "trial_n": 5,
        "move_n": "1",
        "response_time": 238.493,
        "submitted_x": 3,
        "submitted_y": 0,
        "key": 39,
        "move_direction": "right"
    },
    {
        "session_id": "719b83ebf40f8",
        "trial_n": 5,
        "move_n": "2",
        "response_time": 137.593,
        "submitted_x": 2,
        "submitted_y": 0,
        "key": 40,
        "move_direction": "left"
    },
    {
        "session_id": "719b83ebf40f8",
        "trial_n": 5,
        "move_n": "3",
        "response_time": 0.164,
        "submitted_x": 2,
        "submitted_y": 1,
        "key": 40,
        "move_direction": "down"
    },
    {
        "session_id": "719b83ebf40f8",
        "trial_n": 5,
        "move_n": "4",
        "response_time": 0.163,
        "submitted_x": 1,
        "submitted_y": 1,
        "key": 37,
        "move_direction": "left"
    },
    {
        "session_id": "719b83ebf40f8",
        "trial_n": 6,
        "move_n": "1",
        "response_time": 449.095,
        "submitted_x": 3,
        "submitted_y": 0,
        "key": 39,
        "move_direction": "right"
    },
    {
        "session_id": "719b83ebf40f8",
        "trial_n": 6,
        "move_n": "2",
        "response_time": 0.365,
        "submitted_x": 3,
        "submitted_y": 1,
        "key": 40,
        "move_direction": "down"
    },
    {
        "session_id": "719b83ebf40f8",
        "trial_n": 6,
        "move_n": "3",
        "response_time": 0.061,
        "submitted_x": 4,
        "submitted_y": 1,
        "key": 39,
        "move_direction": "right"
    },
    {
        "session_id": "719b83ebf40f8",
        "trial_n": 6,
        "move_n": "4",
        "response_time": 0.49,
        "submitted_x": 5,
        "submitted_y": 1,
        "key": 39,
        "move_direction": "right"
    },
    {
        "session_id": "719b83ebf40f8",
        "trial_n": 7,
        "move_n": "1",
        "response_time": 2.666,
        "submitted_x": 0,
        "submitted_y": 1,
        "key": 40,
        "move_direction": "down"
    },
    {
        "session_id": "719b83ebf40f8",
        "trial_n": 7,
        "move_n": "2",
        "response_time": 0.995,
        "submitted_x": 0,
        "submitted_y": 2,
        "key": 40,
        "move_direction": "down"
    },
    {
        "session_id": "719b83ebf40f8",
        "trial_n": 7,
        "move_n": "3",
        "response_time": 5.653,
        "submitted_x": 0,
        "submitted_y": 1,
        "key": 38,
        "move_direction": "up"
    },
    {
        "session_id": "719b83ebf40f8",
        "trial_n": 7,
        "move_n": "4",
        "response_time": 33.755,
        "submitted_x": 0,
        "submitted_y": 2,
        "key": 39,
        "move_direction": "down"
    },
    {
        "session_id": "719b83ebf40f8",
        "trial_n": 7,
        "move_n": "5",
        "response_time": 0.138,
        "submitted_x": 0,
        "submitted_y": 1,
        "key": 38,
        "move_direction": "up"
    },
    {
        "session_id": "719b83ebf40f8",
        "trial_n": 7,
        "move_n": "6",
        "response_time": 0.024,
        "submitted_x": 1,
        "submitted_y": 1,
        "key": 39,
        "move_direction": "right"
    },
    {
        "session_id": "719b83ebf40f8",
        "trial_n": 7,
        "move_n": "7",
        "response_time": 4.013,
        "submitted_x": 1,
        "submitted_y": 2,
        "key": 40,
        "move_direction": "down"
    },
    {
        "session_id": "719b83ebf40f8",
        "trial_n": 7,
        "move_n": "8",
        "response_time": 1.535,
        "submitted_x": 1,
        "submitted_y": 1,
        "key": 38,
        "move_direction": "up"
    },
    {
        "session_id": "719b83ebf40f8",
        "trial_n": 7,
        "move_n": "9",
        "response_time": 2.905,
        "submitted_x": 2,
        "submitted_y": 1,
        "key": 39,
        "move_direction": "right"
    },
    {
        "session_id": "719b83ebf40f8",
        "trial_n": 7,
        "move_n": "10",
        "response_time": 0.411,
        "submitted_x": 1,
        "submitted_y": 1,
        "key": 40,
        "move_direction": "left"
    },
    {
        "session_id": "719b83ebf40f8",
        "trial_n": 7,
        "move_n": "11",
        "response_time": 0.298,
        "submitted_x": 1,
        "submitted_y": 2,
        "key": 40,
        "move_direction": "down"
    },
    {
        "session_id": "719b83ebf40f8",
        "trial_n": 7,
        "move_n": "12",
        "response_time": 0.614,
        "submitted_x": 2,
        "submitted_y": 2,
        "key": 39,
        "move_direction": "right"
    },
    {
        "session_id": "719b83ebf40f8",
        "trial_n": 7,
        "move_n": "13",
        "response_time": 74.477,
        "submitted_x": 2,
        "submitted_y": 3,
        "key": 40,
        "move_direction": "down"
    },
    {
        "session_id": "719b83ebf40f8",
        "trial_n": 7,
        "move_n": "14",
        "response_time": 0.97,
        "submitted_x": 1,
        "submitted_y": 3,
        "key": 37,
        "move_direction": "left"
    },
    {
        "session_id": "719b83ebf40f8",
        "trial_n": 8,
        "move_n": "1",
        "response_time": 275.804,
        "submitted_x": 1,
        "submitted_y": 0,
        "key": 39,
        "move_direction": "right"
    },
    {
        "session_id": "719b83ebf40f8",
        "trial_n": 8,
        "move_n": "2",
        "response_time": 0.161,
        "submitted_x": 1,
        "submitted_y": 1,
        "key": 40,
        "move_direction": "down"
    },
    {
        "session_id": "719b83ebf40f8",
        "trial_n": 8,
        "move_n": "3",
        "response_time": 0.071,
        "submitted_x": 2,
        "submitted_y": 1,
        "key": 39,
        "move_direction": "right"
    },
    {
        "session_id": "719b83ebf40f8",
        "trial_n": 9,
        "move_n": "1",
        "response_time": 20.067,
        "submitted_x": 1,
        "submitted_y": 1,
        "key": 39,
        "move_direction": "right"
    },
    {
        "session_id": "719b83ebf40f8",
        "trial_n": 9,
        "move_n": "2",
        "response_time": 0.635,
        "submitted_x": 1,
        "submitted_y": 2,
        "key": 37,
        "move_direction": "down"
    },
    {
        "session_id": "719b83ebf40f8",
        "trial_n": 9,
        "move_n": "3",
        "response_time": 26.736,
        "submitted_x": 2,
        "submitted_y": 2,
        "key": 39,
        "move_direction": "right"
    },
    {
        "session_id": "719b83ebf40f8",
        "trial_n": 9,
        "move_n": "4",
        "response_time": 0.273,
        "submitted_x": 3,
        "submitted_y": 2,
        "key": 39,
        "move_direction": "right"
    },
    {
        "session_id": "719b83ebf40f8",
        "trial_n": 10,
        "move_n": "1",
        "response_time": 8.181,
        "submitted_x": 0,
        "submitted_y": 2,
        "key": 38,
        "move_direction": "up"
    },
    {
        "session_id": "719b83ebf40f8",
        "trial_n": 10,
        "move_n": "2",
        "response_time": 0.139,
        "submitted_x": 0,
        "submitted_y": 1,
        "key": 38,
        "move_direction": "up"
    },
    {
        "session_id": "719b83ebf40f8",
        "trial_n": 10,
        "move_n": "3",
        "response_time": 1.222,
        "submitted_x": 0,
        "submitted_y": 0,
        "key": 38,
        "move_direction": "up"
    },
    {
        "session_id": "719b83ebf40f8",
        "trial_n": 10,
        "move_n": "4",
        "response_time": 1.533,
        "submitted_x": 1,
        "submitted_y": 0,
        "key": 39,
        "move_direction": "right"
    },
    {
        "session_id": "719b83ebf40f8",
        "trial_n": 10,
        "move_n": "5",
        "response_time": 1.106,
        "submitted_x": 2,
        "submitted_y": 0,
        "key": 39,
        "move_direction": "right"
    },
    {
        "session_id": "719b83ebf40f8",
        "trial_n": 10,
        "move_n": "6",
        "response_time": 64.062,
        "submitted_x": 2,
        "submitted_y": 1,
        "key": 40,
        "move_direction": "down"
    },
    {
        "session_id": "719b83ebf40f8",
        "trial_n": 10,
        "move_n": "7",
        "response_time": 0.046,
        "submitted_x": 2,
        "submitted_y": 2,
        "key": 40,
        "move_direction": "down"
    },
    {
        "session_id": "719b83ebf40f8",
        "trial_n": 11,
        "move_n": "1",
        "response_time": 67.268,
        "submitted_x": 1,
        "submitted_y": 3,
        "key": 39,
        "move_direction": "right"
    },
    {
        "session_id": "719b83ebf40f8",
        "trial_n": 11,
        "move_n": "2",
        "response_time": 0.228,
        "submitted_x": 2,
        "submitted_y": 3,
        "key": 39,
        "move_direction": "right"
    },
    {
        "session_id": "95d82b23b9967",
        "trial_n": 1,
        "move_n": "1",
        "response_time": 1.506,
        "submitted_x": 2,
        "submitted_y": 1,
        "key": 40,
        "move_direction": "down"
    },
    {
        "session_id": "95d82b23b9967",
        "trial_n": 1,
        "move_n": "2",
        "response_time": 0.118,
        "submitted_x": 2,
        "submitted_y": 2,
        "key": 40,
        "move_direction": "down"
    },
    {
        "session_id": "95d82b23b9967",
        "trial_n": 1,
        "move_n": "3",
        "response_time": 0.051,
        "submitted_x": 3,
        "submitted_y": 2,
        "key": 39,
        "move_direction": "right"
    },
    {
        "session_id": "95d82b23b9967",
        "trial_n": 1,
        "move_n": "4",
        "response_time": 0.004,
        "submitted_x": 4,
        "submitted_y": 2,
        "key": 39,
        "move_direction": "right"
    },
    {
        "session_id": "95d82b23b9967",
        "trial_n": 1,
        "move_n": "5",
        "response_time": 0.11,
        "submitted_x": 4,
        "submitted_y": 3,
        "key": 40,
        "move_direction": "down"
    },
    {
        "session_id": "95d82b23b9967",
        "trial_n": 2,
        "move_n": "1",
        "response_time": 0.77,
        "submitted_x": 2,
        "submitted_y": 1,
        "key": 40,
        "move_direction": "down"
    },
    {
        "session_id": "95d82b23b9967",
        "trial_n": 2,
        "move_n": "2",
        "response_time": 0.454,
        "submitted_x": 2,
        "submitted_y": 2,
        "key": 40,
        "move_direction": "down"
    },
    {
        "session_id": "95d82b23b9967",
        "trial_n": 2,
        "move_n": "3",
        "response_time": 0.03,
        "submitted_x": 3,
        "submitted_y": 2,
        "key": 39,
        "move_direction": "right"
    },
    {
        "session_id": "95d82b23b9967",
        "trial_n": 2,
        "move_n": "4",
        "response_time": 0.168,
        "submitted_x": 4,
        "submitted_y": 2,
        "key": 39,
        "move_direction": "right"
    },
    {
        "session_id": "95d82b23b9967",
        "trial_n": 2,
        "move_n": "5",
        "response_time": 0.002,
        "submitted_x": 3,
        "submitted_y": 2,
        "key": 40,
        "move_direction": "left"
    },
    {
        "session_id": "95d82b23b9967",
        "trial_n": 2,
        "move_n": "6",
        "response_time": 0.483,
        "submitted_x": 4,
        "submitted_y": 2,
        "key": 40,
        "move_direction": "right"
    },
    {
        "session_id": "95d82b23b9967",
        "trial_n": 2,
        "move_n": "7",
        "response_time": 0.412,
        "submitted_x": 4,
        "submitted_y": 3,
        "key": 40,
        "move_direction": "down"
    },
    {
        "session_id": "95d82b23b9967",
        "trial_n": 3,
        "move_n": "1",
        "response_time": 0.759,
        "submitted_x": 2,
        "submitted_y": 1,
        "key": 40,
        "move_direction": "down"
    },
    {
        "session_id": "95d82b23b9967",
        "trial_n": 4,
        "move_n": "1",
        "response_time": 0.827,
        "submitted_x": 3,
        "submitted_y": 0,
        "key": 40,
        "move_direction": "right"
    },
    {
        "session_id": "95d82b23b9967",
        "trial_n": 4,
        "move_n": "2",
        "response_time": 0.375,
        "submitted_x": 3,
        "submitted_y": 1,
        "key": 40,
        "move_direction": "down"
    },
    {
        "session_id": "95d82b23b9967",
        "trial_n": 5,
        "move_n": "1",
        "response_time": 45.501,
        "submitted_x": 2,
        "submitted_y": 1,
        "key": 40,
        "move_direction": "down"
    },
    {
        "session_id": "95d82b23b9967",
        "trial_n": 5,
        "move_n": "2",
        "response_time": 0.141,
        "submitted_x": 2,
        "submitted_y": 2,
        "key": 40,
        "move_direction": "down"
    },
    {
        "session_id": "95d82b23b9967",
        "trial_n": 6,
        "move_n": "1",
        "response_time": 51.451,
        "submitted_x": 1,
        "submitted_y": 0,
        "key": 39,
        "move_direction": "right"
    },
    {
        "session_id": "95d82b23b9967",
        "trial_n": 6,
        "move_n": "2",
        "response_time": 0.344,
        "submitted_x": 0,
        "submitted_y": 0,
        "key": 39,
        "move_direction": "left"
    },
    {
        "session_id": "95d82b23b9967",
        "trial_n": 6,
        "move_n": "3",
        "response_time": 0.366,
        "submitted_x": 1,
        "submitted_y": 0,
        "key": 39,
        "move_direction": "right"
    },
    {
        "session_id": "95d82b23b9967",
        "trial_n": 6,
        "move_n": "4",
        "response_time": 0.412,
        "submitted_x": 2,
        "submitted_y": 0,
        "key": 39,
        "move_direction": "right"
    },
    {
        "session_id": "95d82b23b9967",
        "trial_n": 6,
        "move_n": "5",
        "response_time": 54.974,
        "submitted_x": 2,
        "submitted_y": 1,
        "key": 40,
        "move_direction": "down"
    },
    {
        "session_id": "95d82b23b9967",
        "trial_n": 7,
        "move_n": "1",
        "response_time": 2.116,
        "submitted_x": 1,
        "submitted_y": 0,
        "key": 39,
        "move_direction": "right"
    },
    {
        "session_id": "95d82b23b9967",
        "trial_n": 7,
        "move_n": "2",
        "response_time": 2.92,
        "submitted_x": 2,
        "submitted_y": 0,
        "key": 39,
        "move_direction": "right"
    },
    {
        "session_id": "95d82b23b9967",
        "trial_n": 8,
        "move_n": "1",
        "response_time": 10.746,
        "submitted_x": 1,
        "submitted_y": 0,
        "key": 39,
        "move_direction": "right"
    },
    {
        "session_id": "95d82b23b9967",
        "trial_n": 8,
        "move_n": "2",
        "response_time": 0.141,
        "submitted_x": 2,
        "submitted_y": 0,
        "key": 39,
        "move_direction": "right"
    },
    {
        "session_id": "95d82b23b9967",
        "trial_n": 8,
        "move_n": "3",
        "response_time": 0.141,
        "submitted_x": 3,
        "submitted_y": 0,
        "key": 39,
        "move_direction": "right"
    },
    {
        "session_id": "95d82b23b9967",
        "trial_n": 8,
        "move_n": "4",
        "response_time": 9.297,
        "submitted_x": 3,
        "submitted_y": 1,
        "key": 40,
        "move_direction": "down"
    },
    {
        "session_id": "95d82b23b9967",
        "trial_n": 8,
        "move_n": "5",
        "response_time": 0.118,
        "submitted_x": 2,
        "submitted_y": 1,
        "key": 40,
        "move_direction": "left"
    },
    {
        "session_id": "95d82b23b9967",
        "trial_n": 8,
        "move_n": "6",
        "response_time": 0.278,
        "submitted_x": 3,
        "submitted_y": 1,
        "key": 39,
        "move_direction": "right"
    },
    {
        "session_id": "95d82b23b9967",
        "trial_n": 8,
        "move_n": "7",
        "response_time": 0.048,
        "submitted_x": 3,
        "submitted_y": 2,
        "key": 40,
        "move_direction": "down"
    },
    {
        "session_id": "95d82b23b9967",
        "trial_n": 8,
        "move_n": "8",
        "response_time": 0.319,
        "submitted_x": 2,
        "submitted_y": 2,
        "key": 40,
        "move_direction": "left"
    },
    {
        "session_id": "95d82b23b9967",
        "trial_n": 9,
        "move_n": "1",
        "response_time": 27.127,
        "submitted_x": 1,
        "submitted_y": 1,
        "key": 39,
        "move_direction": "right"
    },
    {
        "session_id": "95d82b23b9967",
        "trial_n": 9,
        "move_n": "2",
        "response_time": 0.184,
        "submitted_x": 2,
        "submitted_y": 1,
        "key": 39,
        "move_direction": "right"
    },
    {
        "session_id": "95d82b23b9967",
        "trial_n": 10,
        "move_n": "1",
        "response_time": 10.272,
        "submitted_x": 1,
        "submitted_y": 3,
        "key": 39,
        "move_direction": "right"
    },
    {
        "session_id": "95d82b23b9967",
        "trial_n": 10,
        "move_n": "2",
        "response_time": 0.296,
        "submitted_x": 2,
        "submitted_y": 3,
        "key": 39,
        "move_direction": "right"
    }
]