[{"session_id":"adcc1b604ab72","trial_n":1,"move_n":"1","response_time":8.003,"submitted_x":3,"submitted_y":0,"key":39,"move_direction":"right"},{"session_id":"adcc1b604ab72","trial_n":1,"move_n":"1","response_time":8.854,"submitted_x":4,"submitted_y":0,"key":39,"move_direction":"right"},{"session_id":"adcc1b604ab72","trial_n":1,"move_n":"3","response_time":3.133,"submitted_x":3,"submitted_y":0,"key":40,"move_direction":"left"},{"session_id":"adcc1b604ab72","trial_n":1,"move_n":"4","response_time":1.201,"submitted_x":4,"submitted_y":0,"key":40,"move_direction":"right"},{"session_id":"adcc1b604ab72","trial_n":1,"move_n":"5","response_time":13.848,"submitted_x":4,"submitted_y":1,"key":40,"move_direction":"down"},{"session_id":"adcc1b604ab72","trial_n":1,"move_n":"6","response_time":1.004,"submitted_x":3,"submitted_y":1,"key":40,"move_direction":"left"},{"session_id":"adcc1b604ab72","trial_n":1,"move_n":"7","response_time":0.186,"submitted_x":3,"submitted_y":2,"key":40,"move_direction":"down"},{"session_id":"adcc1b604ab72","trial_n":1,"move_n":"8","response_time":0.461,"submitted_x":4,"submitted_y":2,"key":39,"move_direction":"right"},{"session_id":"adcc1b604ab72","trial_n":1,"move_n":"9","response_time":0.704,"submitted_x":4,"submitted_y":3,"key":40,"move_direction":"down"},{"session_id":"adcc1b604ab72","trial_n":2,"move_n":"1","response_time":0.789,"submitted_x":3,"submitted_y":0,"key":39,"move_direction":"right"},{"session_id":"adcc1b604ab72","trial_n":2,"move_n":"1","response_time":1.655,"submitted_x":3,"submitted_y":1,"key":40,"move_direction":"down"},{"session_id":"adcc1b604ab72","trial_n":2,"move_n":"3","response_time":0.044,"submitted_x":3,"submitted_y":2,"key":40,"move_direction":"down"},{"session_id":"adcc1b604ab72","trial_n":2,"move_n":"4","response_time":0.033,"submitted_x":3,"submitted_y":3,"key":39,"move_direction":"down"},{"session_id":"adcc1b604ab72","trial_n":2,"move_n":"5","response_time":1.65,"submitted_x":4,"submitted_y":3,"key":39,"move_direction":"right"},{"session_id":"adcc1b604ab72","trial_n":3,"move_n":"1","response_time":1.831,"submitted_x":3,"submitted_y":0,"key":39,"move_direction":"right"},{"session_id":"adcc1b604ab72","trial_n":3,"move_n":"1","response_time":2.664,"submitted_x":2,"submitted_y":0,"key":39,"move_direction":"left"},{"session_id":"adcc1b604ab72","trial_n":3,"move_n":"2","response_time":0.594,"submitted_x":3,"submitted_y":0,"key":39,"move_direction":"right"},{"session_id":"adcc1b604ab72","trial_n":3,"move_n":"3","response_time":0.186,"submitted_x":4,"submitted_y":0,"key":39,"move_direction":"right"},{"session_id":"adcc1b604ab72","trial_n":3,"move_n":"5","response_time":0.257,"submitted_x":4,"submitted_y":1,"key":40,"move_direction":"down"},{"session_id":"adcc1b604ab72","trial_n":3,"move_n":"5","response_time":0.933,"submitted_x":4,"submitted_y":2,"key":40,"move_direction":"down"},{"session_id":"adcc1b604ab72","trial_n":3,"move_n":"6","response_time":0.145,"submitted_x":4,"submitted_y":3,"key":40,"move_direction":"down"},{"session_id":"adcc1b604ab72","trial_n":4,"move_n":"1","response_time":1.848,"submitted_x":3,"submitted_y":0,"key":39,"move_direction":"right"},{"session_id":"adcc1b604ab72","trial_n":4,"move_n":"1","response_time":2.521,"submitted_x":2,"submitted_y":0,"key":39,"move_direction":"left"},{"session_id":"adcc1b604ab72","trial_n":4,"move_n":"2","response_time":0.567,"submitted_x":3,"submitted_y":0,"key":39,"move_direction":"right"},{"session_id":"adcc1b604ab72","trial_n":4,"move_n":"3","response_time":0.134,"submitted_x":4,"submitted_y":0,"key":39,"move_direction":"right"},{"session_id":"adcc1b604ab72","trial_n":4,"move_n":"5","response_time":0.063,"submitted_x":3,"submitted_y":0,"key":40,"move_direction":"left"},{"session_id":"adcc1b604ab72","trial_n":4,"move_n":"6","response_time":0.053,"submitted_x":4,"submitted_y":0,"key":39,"move_direction":"right"},{"session_id":"adcc1b604ab72","trial_n":4,"move_n":"6","response_time":0.728,"submitted_x":4,"submitted_y":1,"key":40,"move_direction":"down"},{"session_id":"adcc1b604ab72","trial_n":4,"move_n":"7","response_time":0.525,"submitted_x":4,"submitted_y":2,"key":40,"move_direction":"down"},{"session_id":"adcc1b604ab72","trial_n":4,"move_n":"9","response_time":0.348,"submitted_x":4,"submitted_y":3,"key":40,"move_direction":"down"},{"session_id":"adcc1b604ab72","trial_n":5,"move_n":"1","response_time":1.509,"submitted_x":3,"submitted_y":0,"key":39,"move_direction":"right"},{"session_id":"adcc1b604ab72","trial_n":5,"move_n":"1","response_time":2.091,"submitted_x":3,"submitted_y":1,"key":40,"move_direction":"down"},{"session_id":"adcc1b604ab72","trial_n":5,"move_n":"2","response_time":0.212,"submitted_x":3,"submitted_y":0,"key":39,"move_direction":"up"},{"session_id":"adcc1b604ab72","trial_n":5,"move_n":"4","response_time":0.684,"submitted_x":3,"submitted_y":1,"key":40,"move_direction":"down"},{"session_id":"adcc1b604ab72","trial_n":5,"move_n":"5","response_time":0.027,"submitted_x":3,"submitted_y":2,"key":40,"move_direction":"down"},{"session_id":"adcc1b604ab72","trial_n":5,"move_n":"5","response_time":0.586,"submitted_x":4,"submitted_y":2,"key":39,"move_direction":"right"},{"session_id":"adcc1b604ab72","trial_n":5,"move_n":"7","response_time":0.26,"submitted_x":5,"submitted_y":2,"key":39,"move_direction":"right"},{"session_id":"adcc1b604ab72","trial_n":5,"move_n":"8","response_time":0.412,"submitted_x":6,"submitted_y":2,"key":40,"move_direction":"right"},{"session_id":"adcc1b604ab72","trial_n":5,"move_n":"9","response_time":0.344,"submitted_x":6,"submitted_y":3,"key":40,"move_direction":"down"},{"session_id":"adcc1b604ab72","trial_n":5,"move_n":"9","response_time":1.198,"submitted_x":6,"submitted_y":2,"key":37,"move_direction":"up"},{"session_id":"adcc1b604ab72","trial_n":5,"move_n":"10","response_time":0.683,"submitted_x":5,"submitted_y":2,"key":37,"move_direction":"left"},{"session_id":"adcc1b604ab72","trial_n":5,"move_n":"11","response_time":0.321,"submitted_x":5,"submitted_y":3,"key":40,"move_direction":"down"}]