[{"session_id":"d6dba8d8ef188","trial_n":1,"move_n":"1","response_time":1.609,"submitted_x":3,"submitted_y":0,"key":39,"move_direction":"right"},{"session_id":"d6dba8d8ef188","trial_n":1,"move_n":"1","response_time":2.35,"submitted_x":3,"submitted_y":1,"key":40,"move_direction":"down"},{"session_id":"d6dba8d8ef188","trial_n":1,"move_n":"2","response_time":0.478,"submitted_x":3,"submitted_y":2,"key":40,"move_direction":"down"},{"session_id":"d6dba8d8ef188","trial_n":1,"move_n":"3","response_time":0.301,"submitted_x":4,"submitted_y":2,"key":39,"move_direction":"right"},{"session_id":"d6dba8d8ef188","trial_n":1,"move_n":"5","response_time":92.525,"submitted_x":4,"submitted_y":1,"key":38,"move_direction":"up"},{"session_id":"d6dba8d8ef188","trial_n":1,"move_n":"6","response_time":1.089,"submitted_x":4,"submitted_y":2,"key":37,"move_direction":"down"},{"session_id":"d6dba8d8ef188","trial_n":1,"move_n":"7","response_time":1.1,"submitted_x":4,"submitted_y":3,"key":38,"move_direction":"down"},{"session_id":"d6dba8d8ef188","trial_n":2,"move_n":"1","response_time":1.362,"submitted_x":2,"submitted_y":1,"key":40,"move_direction":"down"},{"session_id":"d6dba8d8ef188","trial_n":2,"move_n":"2","response_time":0.318,"submitted_x":3,"submitted_y":1,"key":39,"move_direction":"right"},{"session_id":"d6dba8d8ef188","trial_n":2,"move_n":"3","response_time":15.205,"submitted_x":4,"submitted_y":1,"key":39,"move_direction":"right"},{"session_id":"d6dba8d8ef188","trial_n":2,"move_n":"4","response_time":47.036,"submitted_x":4,"submitted_y":2,"key":40,"move_direction":"down"},{"session_id":"d6dba8d8ef188","trial_n":2,"move_n":"5","response_time":0.729,"submitted_x":4,"submitted_y":1,"key":38,"move_direction":"up"},{"session_id":"d6dba8d8ef188","trial_n":2,"move_n":"6","response_time":1.314,"submitted_x":4,"submitted_y":0,"key":38,"move_direction":"up"},{"session_id":"d6dba8d8ef188","trial_n":2,"move_n":"7","response_time":0.124,"submitted_x":3,"submitted_y":0,"key":37,"move_direction":"left"},{"session_id":"d6dba8d8ef188","trial_n":2,"move_n":"8","response_time":1.069,"submitted_x":3,"submitted_y":1,"key":40,"move_direction":"down"},{"session_id":"a26aa89bb318d","trial_n":1,"move_n":"1","response_time":0.658,"submitted_x":3,"submitted_y":0,"key":39,"move_direction":"right"},{"session_id":"a26aa89bb318d","trial_n":1,"move_n":"2","response_time":1.173,"submitted_x":3,"submitted_y":1,"key":40,"move_direction":"down"},{"session_id":"a26aa89bb318d","trial_n":1,"move_n":"3","response_time":0.729,"submitted_x":3,"submitted_y":2,"key":40,"move_direction":"down"},{"session_id":"a26aa89bb318d","trial_n":1,"move_n":"4","response_time":0.5,"submitted_x":2,"submitted_y":2,"key":37,"move_direction":"left"},{"session_id":"a26aa89bb318d","trial_n":1,"move_n":"5","response_time":0.393,"submitted_x":2,"submitted_y":3,"key":40,"move_direction":"down"},{"session_id":"a26aa89bb318d","trial_n":1,"move_n":"6","response_time":1.562,"submitted_x":3,"submitted_y":3,"key":39,"move_direction":"right"},{"session_id":"a26aa89bb318d","trial_n":1,"move_n":"7","response_time":0.933,"submitted_x":3,"submitted_y":2,"key":38,"move_direction":"up"},{"session_id":"e568d4a80cc42","trial_n":1,"move_n":"1","response_time":1.012,"submitted_x":3,"submitted_y":0,"key":39,"move_direction":"right"},{"session_id":"e568d4a80cc42","trial_n":1,"move_n":"1","response_time":2,"submitted_x":3,"submitted_y":1,"key":40,"move_direction":"down"},{"session_id":"e568d4a80cc42","trial_n":1,"move_n":"2","response_time":0.277,"submitted_x":2,"submitted_y":1,"key":40,"move_direction":"left"},{"session_id":"e568d4a80cc42","trial_n":1,"move_n":"4","response_time":2.753,"submitted_x":2,"submitted_y":2,"key":39,"move_direction":"down"},{"session_id":"e568d4a80cc42","trial_n":1,"move_n":"4","response_time":3.326,"submitted_x":3,"submitted_y":2,"key":39,"move_direction":"right"},{"session_id":"e568d4a80cc42","trial_n":1,"move_n":"6","response_time":0.716,"submitted_x":2,"submitted_y":2,"key":39,"move_direction":"left"},{"session_id":"e568d4a80cc42","trial_n":1,"move_n":"7","response_time":0.55,"submitted_x":3,"submitted_y":2,"key":39,"move_direction":"right"},{"session_id":"e568d4a80cc42","trial_n":1,"move_n":"8","response_time":0.097,"submitted_x":3,"submitted_y":3,"key":40,"move_direction":"down"},{"session_id":"e568d4a80cc42","trial_n":1,"move_n":"9","response_time":0.143,"submitted_x":4,"submitted_y":3,"key":39,"move_direction":"right"},{"session_id":"e568d4a80cc42","trial_n":2,"move_n":"1","response_time":1.431,"submitted_x":3,"submitted_y":0,"key":40,"move_direction":"right"},{"session_id":"e568d4a80cc42","trial_n":2,"move_n":"1","response_time":1.942,"submitted_x":3,"submitted_y":1,"key":40,"move_direction":"down"},{"session_id":"e568d4a80cc42","trial_n":2,"move_n":"2","response_time":0.165,"submitted_x":3,"submitted_y":2,"key":40,"move_direction":"down"},{"session_id":"e568d4a80cc42","trial_n":2,"move_n":"3","response_time":0.326,"submitted_x":4,"submitted_y":2,"key":39,"move_direction":"right"},{"session_id":"e568d4a80cc42","trial_n":2,"move_n":"5","response_time":0.394,"submitted_x":3,"submitted_y":2,"key":40,"move_direction":"left"},{"session_id":"e568d4a80cc42","trial_n":2,"move_n":"6","response_time":0.099,"submitted_x":2,"submitted_y":2,"key":39,"move_direction":"left"},{"session_id":"e568d4a80cc42","trial_n":2,"move_n":"6","response_time":1.065,"submitted_x":3,"submitted_y":2,"key":39,"move_direction":"right"},{"session_id":"e568d4a80cc42","trial_n":2,"move_n":"7","response_time":0.753,"submitted_x":4,"submitted_y":2,"key":39,"move_direction":"right"},{"session_id":"e568d4a80cc42","trial_n":2,"move_n":"8","response_time":0.684,"submitted_x":4,"submitted_y":3,"key":40,"move_direction":"down"},{"session_id":"e568d4a80cc42","trial_n":3,"move_n":"1","response_time":1.498,"submitted_x":3,"submitted_y":0,"key":39,"move_direction":"right"},{"session_id":"e568d4a80cc42","trial_n":3,"move_n":"2","response_time":0.435,"submitted_x":4,"submitted_y":0,"key":39,"move_direction":"right"},{"session_id":"e568d4a80cc42","trial_n":3,"move_n":"2","response_time":1.405,"submitted_x":4,"submitted_y":1,"key":40,"move_direction":"down"},{"session_id":"e568d4a80cc42","trial_n":3,"move_n":"3","response_time":0.912,"submitted_x":4,"submitted_y":2,"key":40,"move_direction":"down"},{"session_id":"e568d4a80cc42","trial_n":3,"move_n":"4","response_time":0.524,"submitted_x":3,"submitted_y":2,"key":37,"move_direction":"left"},{"session_id":"e568d4a80cc42","trial_n":3,"move_n":"6","response_time":2.15,"submitted_x":4,"submitted_y":2,"key":39,"move_direction":"right"},{"session_id":"e568d4a80cc42","trial_n":3,"move_n":"7","response_time":0.031,"submitted_x":4,"submitted_y":3,"key":40,"move_direction":"down"},{"session_id":"e568d4a80cc42","trial_n":4,"move_n":"1","response_time":1.217,"submitted_x":3,"submitted_y":0,"key":39,"move_direction":"right"},{"session_id":"e568d4a80cc42","trial_n":4,"move_n":"1","response_time":2.141,"submitted_x":3,"submitted_y":1,"key":40,"move_direction":"down"},{"session_id":"e568d4a80cc42","trial_n":5,"move_n":"1","response_time":1.444,"submitted_x":2,"submitted_y":1,"key":40,"move_direction":"down"},{"session_id":"e568d4a80cc42","trial_n":5,"move_n":"2","response_time":0.527,"submitted_x":2,"submitted_y":2,"key":40,"move_direction":"down"},{"session_id":"e568d4a80cc42","trial_n":5,"move_n":"2","response_time":1.472,"submitted_x":2,"submitted_y":3,"key":40,"move_direction":"down"},{"session_id":"e568d4a80cc42","trial_n":5,"move_n":"3","response_time":0.348,"submitted_x":2,"submitted_y":2,"key":37,"move_direction":"up"},{"session_id":"e568d4a80cc42","trial_n":5,"move_n":"3","response_time":0.93,"submitted_x":2,"submitted_y":3,"key":40,"move_direction":"down"},{"session_id":"e568d4a80cc42","trial_n":5,"move_n":"4","response_time":0.344,"submitted_x":1,"submitted_y":3,"key":37,"move_direction":"left"},{"session_id":"e568d4a80cc42","trial_n":6,"move_n":"1","response_time":0.956,"submitted_x":1,"submitted_y":0,"key":39,"move_direction":"right"},{"session_id":"e568d4a80cc42","trial_n":6,"move_n":"1","response_time":1.492,"submitted_x":0,"submitted_y":0,"key":39,"move_direction":"left"},{"session_id":"e568d4a80cc42","trial_n":6,"move_n":"2","response_time":0.011,"submitted_x":1,"submitted_y":0,"key":39,"move_direction":"right"},{"session_id":"e568d4a80cc42","trial_n":6,"move_n":"2","response_time":0.281,"submitted_x":2,"submitted_y":0,"key":39,"move_direction":"right"},{"session_id":"e568d4a80cc42","trial_n":6,"move_n":"2","response_time":0.523,"submitted_x":1,"submitted_y":0,"key":39,"move_direction":"left"},{"session_id":"e568d4a80cc42","trial_n":6,"move_n":"3","response_time":0.319,"submitted_x":2,"submitted_y":0,"key":39,"move_direction":"right"},{"session_id":"e568d4a80cc42","trial_n":6,"move_n":"5","response_time":0.076,"submitted_x":3,"submitted_y":0,"key":39,"move_direction":"right"},{"session_id":"e568d4a80cc42","trial_n":6,"move_n":"6","response_time":0.059,"submitted_x":3,"submitted_y":1,"key":39,"move_direction":"down"},{"session_id":"e568d4a80cc42","trial_n":7,"move_n":"1","response_time":1.959,"submitted_x":3,"submitted_y":0,"key":39,"move_direction":"right"},{"session_id":"e568d4a80cc42","trial_n":7,"move_n":"1","response_time":2.723,"submitted_x":3,"submitted_y":1,"key":40,"move_direction":"down"},{"session_id":"e568d4a80cc42","trial_n":7,"move_n":"2","response_time":0.682,"submitted_x":3,"submitted_y":2,"key":40,"move_direction":"down"},{"session_id":"e568d4a80cc42","trial_n":7,"move_n":"4","response_time":0.122,"submitted_x":2,"submitted_y":2,"key":37,"move_direction":"left"},{"session_id":"e568d4a80cc42","trial_n":7,"move_n":"4","response_time":1.07,"submitted_x":2,"submitted_y":3,"key":40,"move_direction":"down"},{"session_id":"e568d4a80cc42","trial_n":7,"move_n":"6","response_time":0.141,"submitted_x":1,"submitted_y":3,"key":37,"move_direction":"left"},{"session_id":"e568d4a80cc42","trial_n":8,"move_n":"1","response_time":0.812,"submitted_x":3,"submitted_y":0,"key":39,"move_direction":"right"},{"session_id":"e568d4a80cc42","trial_n":8,"move_n":"1","response_time":1.466,"submitted_x":3,"submitted_y":1,"key":40,"move_direction":"down"},{"session_id":"e568d4a80cc42","trial_n":8,"move_n":"2","response_time":0.303,"submitted_x":4,"submitted_y":1,"key":39,"move_direction":"right"},{"session_id":"e568d4a80cc42","trial_n":8,"move_n":"3","response_time":0.117,"submitted_x":4,"submitted_y":2,"key":40,"move_direction":"down"},{"session_id":"e568d4a80cc42","trial_n":8,"move_n":"3","response_time":0.501,"submitted_x":4,"submitted_y":3,"key":39,"move_direction":"down"},{"session_id":"e568d4a80cc42","trial_n":9,"move_n":"1","response_time":1.136,"submitted_x":3,"submitted_y":0,"key":39,"move_direction":"right"},{"session_id":"e568d4a80cc42","trial_n":9,"move_n":"1","response_time":1.811,"submitted_x":4,"submitted_y":0,"key":40,"move_direction":"right"},{"session_id":"e568d4a80cc42","trial_n":9,"move_n":"2","response_time":0.276,"submitted_x":3,"submitted_y":0,"key":37,"move_direction":"left"},{"session_id":"e568d4a80cc42","trial_n":9,"move_n":"3","response_time":0.165,"submitted_x":3,"submitted_y":1,"key":40,"move_direction":"down"},{"session_id":"e568d4a80cc42","trial_n":9,"move_n":"4","response_time":0.233,"submitted_x":2,"submitted_y":1,"key":40,"move_direction":"left"},{"session_id":"e568d4a80cc42","trial_n":9,"move_n":"5","response_time":0.255,"submitted_x":1,"submitted_y":1,"key":40,"move_direction":"left"},{"session_id":"e568d4a80cc42","trial_n":10,"move_n":"1","response_time":0.664,"submitted_x":1,"submitted_y":0,"key":39,"move_direction":"right"},{"session_id":"e568d4a80cc42","trial_n":10,"move_n":"1","response_time":1.353,"submitted_x":2,"submitted_y":0,"key":39,"move_direction":"right"},{"session_id":"e568d4a80cc42","trial_n":10,"move_n":"2","response_time":0.042,"submitted_x":1,"submitted_y":0,"key":39,"move_direction":"left"},{"session_id":"e568d4a80cc42","trial_n":10,"move_n":"2","response_time":0.231,"submitted_x":2,"submitted_y":0,"key":39,"move_direction":"right"},{"session_id":"e568d4a80cc42","trial_n":10,"move_n":"2","response_time":0.615,"submitted_x":1,"submitted_y":0,"key":39,"move_direction":"left"},{"session_id":"e568d4a80cc42","trial_n":10,"move_n":"3","response_time":0.155,"submitted_x":2,"submitted_y":0,"key":39,"move_direction":"right"},{"session_id":"e568d4a80cc42","trial_n":10,"move_n":"4","response_time":0.154,"submitted_x":3,"submitted_y":0,"key":39,"move_direction":"right"},{"session_id":"e568d4a80cc42","trial_n":10,"move_n":"6","response_time":0.009,"submitted_x":3,"submitted_y":1,"key":39,"move_direction":"down"},{"session_id":"b0005ae0c8cfd","trial_n":1,"move_n":"1","response_time":1.039,"submitted_x":3,"submitted_y":0,"key":39,"move_direction":"right"},{"session_id":"b0005ae0c8cfd","trial_n":1,"move_n":"2","response_time":1.555,"submitted_x":3,"submitted_y":1,"key":40,"move_direction":"down"},{"session_id":"b0005ae0c8cfd","trial_n":1,"move_n":"3","response_time":1.132,"submitted_x":2,"submitted_y":1,"key":39,"move_direction":"left"},{"session_id":"b0005ae0c8cfd","trial_n":1,"move_n":"4","response_time":0.902,"submitted_x":2,"submitted_y":2,"key":40,"move_direction":"down"},{"session_id":"b0005ae0c8cfd","trial_n":1,"move_n":"5","response_time":0.499,"submitted_x":2,"submitted_y":1,"key":39,"move_direction":"up"},{"session_id":"b0005ae0c8cfd","trial_n":1,"move_n":"6","response_time":0.503,"submitted_x":2,"submitted_y":0,"key":39,"move_direction":"up"},{"session_id":"b0005ae0c8cfd","trial_n":1,"move_n":"7","response_time":0.476,"submitted_x":2,"submitted_y":1,"key":40,"move_direction":"down"},{"session_id":"b0005ae0c8cfd","trial_n":1,"move_n":"8","response_time":0.138,"submitted_x":3,"submitted_y":1,"key":39,"move_direction":"right"},{"session_id":"b0005ae0c8cfd","trial_n":1,"move_n":"9","response_time":0.656,"submitted_x":3,"submitted_y":2,"key":40,"move_direction":"down"},{"session_id":"b0005ae0c8cfd","trial_n":1,"move_n":"10","response_time":0.429,"submitted_x":4,"submitted_y":2,"key":39,"move_direction":"right"},{"session_id":"b0005ae0c8cfd","trial_n":1,"move_n":"11","response_time":0.497,"submitted_x":4,"submitted_y":3,"key":40,"move_direction":"down"},{"session_id":"c8713bc58fc65","trial_n":1,"move_n":"1","response_time":1.947,"submitted_x":3,"submitted_y":0,"key":39,"move_direction":"right"},{"session_id":"c8713bc58fc65","trial_n":1,"move_n":"2","response_time":0.317,"submitted_x":2,"submitted_y":0,"key":40,"move_direction":"left"},{"session_id":"c8713bc58fc65","trial_n":1,"move_n":"3","response_time":0.473,"submitted_x":2,"submitted_y":1,"key":40,"move_direction":"down"},{"session_id":"c8713bc58fc65","trial_n":1,"move_n":"4","response_time":0.456,"submitted_x":3,"submitted_y":1,"key":39,"move_direction":"right"},{"session_id":"c8713bc58fc65","trial_n":1,"move_n":"5","response_time":0.43,"submitted_x":4,"submitted_y":1,"key":39,"move_direction":"right"},{"session_id":"c8713bc58fc65","trial_n":1,"move_n":"6","response_time":0.43,"submitted_x":4,"submitted_y":2,"key":40,"move_direction":"down"},{"session_id":"c8713bc58fc65","trial_n":1,"move_n":"7","response_time":0.788,"submitted_x":4,"submitted_y":3,"key":40,"move_direction":"down"}]